thisN,thisTrialN,thisRepN,key_resp_1.keys,key_resp_1.rt,key_resp_1.duration,regret_key.keys,regret_key.rt,regret_key.duration,trials.thisRepN,trials.thisTrialN,trials.thisN,trials.thisIndex,thisRow.t,notes,begin_exp.started,begin.started,advance_key.started,begin_exp.stopped,advance_key.keys,advance_key.rt,advance_key.duration,Fixation.started,fixcross.started,etRecord.started,Fixation.stopped,trial_num,participant_cond,prob_left,prob_up,prob_right,Choice.started,tree1_img.started,tree2_img.started,tree3_img.started,key_resp_1.started,Choice.stopped,trials.key_resp_1.keys,trials.key_resp_1.rt,trials.key_resp_1.duration,choice_key,choice_rt,choice_prob,points,Feedback.started,appleImage.started,tree1.started,tree2.started,tree3.started,Feedback.stopped,regret_rating,regret_rt,RegretRating.started,RegretRating.stopped,trials.regret_key.keys,ITI.started,blank_screen.started,blank_screen.stopped,ITI.stopped,fixcross.stopped,regret_scale.started,regret_key.started,rtree1.started,rtree2.started,rtree3.started,trials.regret_key.rt,trials.regret_key.duration,avg_regret,EndScreen.started,end_display.started,participant,session,date,expName,psychopyVersion,frameRate,participant_cond,prob_left,prob_up,prob_right,expStart,
,,,,,,,,,,,,,,,0.008634875004645437,0.023928457987494767,0.023928457987494767,3.62451129197143,space,3.56647745805094,None,,,,,,1,0.5,0.7,0.2,,,,,,,,,,,,,,,,,,,,,,,,,,,,,,,,,,,,,,,,064132,001,2025-08-12_15h28.30.784,regret_experiment,2024.2.4,122.70114342695148,1,0.5,0.7,0.2,2025-08-12 15h28.36.523670 -0700,
0,0,0,right,1.8917485830024816,None,None,,,0,0,0,0,4.159112458000891,,,,,,,,,3.6262737920042127,4.159112458000891,0.0017274999991059303,4.634195874969009,1,1,0.5,0.7,0.2,4.634499499981757,4.643266167026013,4.643266167026013,4.643266167026013,4.643266167026013,6.53947091702139,right,1.8917485830024816,None,right,1.8917485830024816,0.2,1,6.560188999981619,6.595685791980941,6.595685791980941,6.595685791980941,6.595685791980941,8.541502874984872,NA,NA,8.541885833023116,8.541962791990954,None,8.542047875002027,8.549578916979954,9.539981250010896,9.534076542011462,,,,,,,,,,,,064132,001,2025-08-12_15h28.30.784,regret_experiment,2024.2.4,122.70114342695148,1,0.5,0.7,0.2,2025-08-12 15h28.36.523670 -0700,
1,0,1,left,1.477564834000077,None,None,,,1,0,1,0,9.539981250010896,,,,,,,,,9.534470250015147,9.539981250010896,0.008395749959163368,10.534793749975506,2,1,0.5,0.7,0.2,10.535084666975308,10.54202350002015,10.54202350002015,10.54202350002015,10.54202350002015,12.023834125022404,left,1.477564834000077,None,left,1.477564834000077,0.5,1,12.042128250002861,12.050898457993753,12.050898457993753,12.050898457993753,12.050898457993753,14.03449200000614,NA,NA,14.034983167017344,14.035055249987636,None,14.035161875013728,14.041085375007242,15.04169099999126,15.035059417015873,10.54202350002015,,,,,,,,,,,064132,001,2025-08-12_15h28.30.784,regret_experiment,2024.2.4,122.70114342695148,1,0.5,0.7,0.2,2025-08-12 15h28.36.523670 -0700,
2,0,2,left,0.45845220796763897,None,2,7.927681708009914,None,2,0,2,0,15.04169099999126,,,,,,,,,15.03556699998444,15.04169099999126,0.00047262496082112193,16.033994791971054,3,1,0.5,0.7,0.2,16.034272541990504,16.20148466702085,16.20148466702085,16.20148466702085,16.20148466702085,16.66903300001286,left,0.45845220796763897,None,left,0.45845220796763897,0.5,0,16.6881430830108,16.702042041986715,16.702042041986715,16.702042041986715,16.702042041986715,18.67285199998878,2,7.927681708009914,18.684425375016872,26.624213791976217,2,26.62436145800166,26.633201832999475,27.62365895800758,27.617609291977715,16.20148466702085,18.692178791970946,18.692178791970946,18.692178791970946,18.692178791970946,18.692178791970946,7.927681708009914,None,,,,064132,001,2025-08-12_15h28.30.784,regret_experiment,2024.2.4,122.70114342695148,1,0.5,0.7,0.2,2025-08-12 15h28.36.523670 -0700,
3,0,3,up,0.7563305419753306,None,2,2.362353709002491,None,3,0,3,0,27.62365895800758,,,,,,,,,27.61806908302242,27.62365895800758,-0.0005993329687044024,28.608169083017856,4,1,0.5,0.7,0.2,28.608494292013347,28.61637470801361,28.61637470801361,28.61637470801361,28.61637470801361,29.37496370798908,up,0.7563305419753306,None,up,0.7563305419753306,0.7,0,29.39516499999445,29.403620166995097,29.403620166995097,29.403620166995097,29.403620166995097,31.383700124977622,2,2.362353709002491,31.39540862501599,33.76837970799534,2,33.768504832987674,33.77404170797672,34.76697391702328,34.75715512497118,28.61637470801361,31.402485958009493,31.402485958009493,31.402485958009493,31.402485958009493,31.402485958009493,2.362353709002491,None,,,,064132,001,2025-08-12_15h28.30.784,regret_experiment,2024.2.4,122.70114342695148,1,0.5,0.7,0.2,2025-08-12 15h28.36.523670 -0700,
4,0,4,right,1.4699076659744605,None,2,1.2160995840094984,None,4,0,4,0,34.76697391702328,,,,,,,,,34.75754791701911,34.76697391702328,0.003881584038026631,35.7508135419921,5,1,0.5,0.7,0.2,35.75109095801599,35.767104666971136,35.767104666971136,35.767104666971136,35.767104666971136,37.24130133300787,right,1.4699076659744605,None,right,1.4699076659744605,0.2,0,37.26357041700976,37.27155933302129,37.27155933302129,37.27155933302129,37.27155933302129,39.25052537501324,2,1.2160995840094984,39.262258625007235,40.49055462499382,2,40.49067212501541,40.49931616696995,41.48990862502251,41.48405475000618,35.75569570797961,39.26944270799868,39.26944270799868,39.26944270799868,39.26944270799868,39.26944270799868,1.2160995840094984,None,,,,064132,001,2025-08-12_15h28.30.784,regret_experiment,2024.2.4,122.70114342695148,1,0.5,0.7,0.2,2025-08-12 15h28.36.523670 -0700,
5,0,5,left,0.6487435000017285,None,None,,,5,0,5,0,41.48990862502251,,,,,,,,,41.48454637499526,41.48990862502251,-0.0006749169551767409,42.48425662500085,6,1,0.5,0.7,0.2,42.48451529198792,42.49012854200555,42.49012854200555,42.49012854200555,42.49012854200555,43.15145579201635,left,0.6487435000017285,None,left,0.6487435000017285,0.5,1,43.168587457970716,43.17602104198886,43.17602104198886,43.17602104198886,43.17602104198886,45.15673475002404,NA,NA,45.15709854202578,45.15715133299818,None,45.15722737502074,45.16703208297258,46.15828220802359,46.151369749975856,42.49012854200555,,,,,,,,,,,064132,001,2025-08-12_15h28.30.784,regret_experiment,2024.2.4,122.70114342695148,1,0.5,0.7,0.2,2025-08-12 15h28.36.523670 -0700,
6,0,6,left,0.38910387497162446,None,None,,,6,0,6,0,46.15828220802359,,,,,,,,,46.151993291976396,46.15828220802359,0.0011341249919496477,47.151502749999054,7,1,0.5,0.7,0.2,47.151774708007,47.16711112501798,47.16711112501798,47.16711112501798,47.16711112501798,47.56827308301581,left,0.38910387497162446,None,left,0.38910387497162446,0.5,1,47.586292332969606,47.594609749969095,47.594609749969095,47.594609749969095,47.594609749969095,49.572773208026774,NA,NA,49.57307129201945,49.573138499981724,None,49.57323383301264,49.58379545802018,50.58425337501103,50.568278625025414,47.16711112501798,,,,,,,,,,,064132,001,2025-08-12_15h28.30.784,regret_experiment,2024.2.4,122.70114342695148,1,0.5,0.7,0.2,2025-08-12 15h28.36.523670 -0700,
7,0,7,up,0.3597296249936335,None,None,,,7,0,7,0,50.58425337501103,,,,,,,,,50.568888082983904,50.58425337501103,0.01111441699322313,51.56767104199389,8,1,0.5,0.7,0.2,51.567902542010415,51.57523125002626,51.57523125002626,51.57523125002626,51.57523125002626,51.93776349996915,up,0.3597296249936335,None,up,0.3597296249936335,0.7,1,51.955902500019874,51.96306345798075,51.96306345798075,51.96306345798075,51.96306345798075,53.93882279196987,NA,NA,53.93913850001991,53.93919112498406,None,53.93926716700662,53.95042574999388,54.94125554198399,54.934992207970936,51.57523125002626,,,,,,,,,,,064132,001,2025-08-12_15h28.30.784,regret_experiment,2024.2.4,122.70114342695148,1,0.5,0.7,0.2,2025-08-12 15h28.36.523670 -0700,
8,0,8,right,0.744123375043273,None,1,0.5668457079445943,None,8,0,8,0,54.94125554198399,,,,,,,,,54.935504957975354,54.94125554198399,0.002069292007945478,55.924465957970824,9,1,0.5,0.7,0.2,55.924734791973606,55.933272499998566,55.933272499998566,55.933272499998566,55.933272499998566,56.6850590420072,right,0.744123375043273,None,right,0.744123375043273,0.2,0,56.705287542019505,56.71403458301211,56.71403458301211,56.71403458301211,56.71403458301211,58.6905617499724,1,0.5668457079445943,58.70174966700142,59.28997824998805,1,59.29009629198117,59.29839904198889,60.28998699999647,60.283996667014435,55.933272499998566,58.70893312501721,58.70893312501721,58.70893312501721,58.70893312501721,58.70893312501721,0.5668457079445943,None,,,,064132,001,2025-08-12_15h28.30.784,regret_experiment,2024.2.4,122.70114342695148,1,0.5,0.7,0.2,2025-08-12 15h28.36.523670 -0700,
9,0,9,up,0.9279760419740342,None,None,,,9,0,9,0,60.28998699999647,,,,,,,,,60.28441504196962,60.28998699999647,1.5208031982183456e-05,61.27284520800458,10,1,0.5,0.7,0.2,61.27311599999666,61.28376020799624,61.28376020799624,61.28376020799624,61.28376020799624,62.21997462498257,up,0.9279760419740342,None,up,0.9279760419740342,0.7,1,62.23856508301105,62.24644812499173,62.24644812499173,62.24644812499173,62.24644812499173,64.22244400001364,NA,NA,64.22274266701424,64.22280412499094,None,64.2228768329951,64.2338412500103,65.22446624998702,65.218159208016,61.28376020799624,,,,,,,,,,,064132,001,2025-08-12_15h28.30.784,regret_experiment,2024.2.4,122.70114342695148,1,0.5,0.7,0.2,2025-08-12 15h28.36.523670 -0700,
10,0,10,right,0.4617061670287512,None,2,4.142869999981485,None,10,0,10,0,65.22446624998702,,,,,,,,,65.21856020798441,65.22446624998702,0.0016865839716047049,66.21776545798639,11,1,0.5,0.7,0.2,66.21803300001193,66.22414008300984,66.22414008300984,66.22414008300984,66.22414008300984,66.68991374998586,right,0.4617061670287512,None,right,0.4617061670287512,0.2,0,66.70874566701241,66.71721070801141,66.71721070801141,66.71721070801141,66.71721070801141,68.69073162501445,2,4.142869999981485,68.7019653749885,72.85729125002399,2,72.85743337497115,72.86617766699055,73.85866387496935,73.85127899999497,66.22414008300984,68.70909437502269,68.70909437502269,68.70909437502269,68.70909437502269,68.70909437502269,4.142869999981485,None,,,,064132,001,2025-08-12_15h28.30.784,regret_experiment,2024.2.4,122.70114342695148,1,0.5,0.7,0.2,2025-08-12 15h28.36.523670 -0700,
11,0,11,right,0.7696402499568649,None,2,0.7060800840263255,None,11,0,11,0,73.85866387496935,,,,,,,,,73.85187995800516,73.85866387496935,0.001324417011346668,74.85092533298302,12,1,0.5,0.7,0.2,74.85133120801765,74.85855512501439,74.85855512501439,74.85855512501439,74.85855512501439,75.63487566699041,right,0.7696402499568649,None,right,0.7696402499568649,0.2,0,75.65518720797263,75.66316250001546,75.66316250001546,75.66316250001546,75.66316250001546,77.63878545799525,2,0.7060800840263255,77.6506890419987,78.36898662499152,2,78.3691084170132,78.37445670797024,79.36643162497785,79.35741379199317,74.85855512501439,77.65773674997035,77.65773674997035,77.65773674997035,77.65773674997035,77.65773674997035,0.7060800840263255,None,,,,064132,001,2025-08-12_15h28.30.784,regret_experiment,2024.2.4,122.70114342695148,1,0.5,0.7,0.2,2025-08-12 15h28.36.523670 -0700,
12,0,12,left,0.397659208974801,None,3,0.6267741250339895,None,12,0,12,0,79.36643162497785,,,,,,,,,79.35782670800108,79.36643162497785,0.0016165839624591172,80.35104170802515,13,1,0.5,0.7,0.2,80.35155354201561,80.36696608300554,80.36696608300554,80.36696608300554,80.36696608300554,80.76831075001974,left,0.397659208974801,None,left,0.397659208974801,0.5,0,80.78783454198856,80.79517791699618,80.79517791699618,80.79517791699618,80.79517791699618,82.77461658301763,3,0.6267741250339895,82.78628291701898,83.4244835000136,3,83.42460408300394,83.43331454199506,84.42538766702637,84.41795995802386,80.35644904198125,82.7929745829897,82.7929745829897,82.7929745829897,82.7929745829897,82.7929745829897,0.6267741250339895,None,,,,064132,001,2025-08-12_15h28.30.784,regret_experiment,2024.2.4,122.70114342695148,1,0.5,0.7,0.2,2025-08-12 15h28.36.523670 -0700,
13,0,13,up,0.4011587499990128,None,3,1.7893749580252916,None,13,0,13,0,84.42538766702637,,,,,,,,,84.41854666697327,84.42538766702637,0.0008650000090710819,85.41803495801287,14,1,0.5,0.7,0.2,85.41831083298894,85.43452033301583,85.43452033301583,85.43452033301583,85.43452033301583,85.84250470797997,up,0.4011587499990128,None,up,0.4011587499990128,0.7,0,85.86269216699293,85.8706078749965,85.8706078749965,85.8706078749965,85.8706078749965,87.85107249999419,3,1.7893749580252916,87.86375812499318,89.66822225000942,3,89.66834641702008,89.6766743750195,90.67497895797715,90.66736441699322,85.43452033301583,87.87061383301625,87.87061383301625,87.87061383301625,87.87061383301625,87.87061383301625,1.7893749580252916,None,,,,064132,001,2025-08-12_15h28.30.784,regret_experiment,2024.2.4,122.70114342695148,1,0.5,0.7,0.2,2025-08-12 15h28.36.523670 -0700,
14,0,14,right,0.4012397089973092,None,3,2.215900667011738,None,14,0,14,0,90.67497895797715,,,,,,,,,90.66789912502281,90.67497895797715,-0.00038537499494850636,91.66759195801569,15,1,0.5,0.7,0.2,91.66789079201408,91.67418712499784,91.67418712499784,91.67418712499784,91.67418712499784,92.08549795800354,right,0.4012397089973092,None,right,0.4012397089973092,0.2,0,92.10448433301644,92.11221166700125,92.11221166700125,92.11221166700125,92.11221166700125,94.08882645796984,3,2.215900667011738,94.10122116701677,96.33489558298606,3,96.33502445800696,96.3433367079706,97.34051104198443,97.33438216696959,91.67418712499784,94.10794012498809,94.10794012498809,94.10794012498809,94.10794012498809,94.10794012498809,2.215900667011738,None,,,,064132,001,2025-08-12_15h28.30.784,regret_experiment,2024.2.4,122.70114342695148,1,0.5,0.7,0.2,2025-08-12 15h28.36.523670 -0700,
15,0,15,right,0.36809495801571757,None,2,1.7350697089568712,None,15,0,15,0,97.34051104198443,,,,,,,,,97.33477079198929,97.34051104198443,-0.0001941670197993517,98.33406866696896,16,1,0.5,0.7,0.2,98.33430704200873,98.3403724579839,98.3403724579839,98.3403724579839,98.3403724579839,98.71882508299313,right,0.36809495801571757,None,right,0.36809495801571757,0.2,0,98.73969750001561,98.74753350001993,98.74753350001993,98.74753350001993,98.74753350001993,100.7223578330013,2,1.7350697089568712,100.73390108300373,102.4860369170201,2,102.48618025000906,102.49440974998288,103.49003779201303,103.4841735829832,98.3403724579839,100.74117120797746,100.74117120797746,100.74117120797746,100.74117120797746,100.74117120797746,1.7350697089568712,None,,,,064132,001,2025-08-12_15h28.30.784,regret_experiment,2024.2.4,122.70114342695148,1,0.5,0.7,0.2,2025-08-12 15h28.36.523670 -0700,
16,0,16,left,0.3513137080008164,None,3,0.9169971660012379,None,16,0,16,0,103.49003779201303,,,,,,,,,103.48458137497073,103.49003779201303,0.003984499955549836,104.48491008300334,17,1,0.5,0.7,0.2,104.48516837501666,104.50109979201807,104.50109979201807,104.50109979201807,104.50109979201807,104.85729958297452,left,0.3513137080008164,None,left,0.3513137080008164,0.5,0,104.876495332981,104.88483108300716,104.88483108300716,104.88483108300716,104.88483108300716,106.86742074997164,3,0.9169971660012379,106.88011458300753,107.80897016701056,3,107.80904845800251,107.81762216700008,108.81537233298877,108.80263633298455,104.50109979201807,106.8872210420086,106.8872210420086,106.8872210420086,106.8872210420086,106.8872210420086,0.9169971660012379,None,,,,064132,001,2025-08-12_15h28.30.784,regret_experiment,2024.2.4,122.70114342695148,1,0.5,0.7,0.2,2025-08-12 15h28.36.523670 -0700,
17,0,17,up,0.2619343340047635,None,3,1.5547766250092536,None,17,0,17,0,108.81537233298877,,,,,,,,,108.80285429197829,108.81537233298877,0.006376250006724149,109.80074533302104,18,1,0.5,0.7,0.2,109.80100408301223,109.80705141701037,109.80705141701037,109.80705141701037,109.80705141701037,110.0736105000251,up,0.2619343340047635,None,up,0.2619343340047635,0.7,0,110.09456050000153,110.10255833301926,110.10255833301926,110.10255833301926,110.10255833301926,112.08476504200371,3,1.5547766250092536,112.09855674998835,113.66850766702555,3,113.6686466250103,113.67410083301365,114.68448079196969,114.66828733298462,109.80705141701037,112.10522166697774,112.10522166697774,112.10522166697774,112.10522166697774,112.10522166697774,1.5547766250092536,None,,,,064132,001,2025-08-12_15h28.30.784,regret_experiment,2024.2.4,122.70114342695148,1,0.5,0.7,0.2,2025-08-12 15h28.36.523670 -0700,
18,0,18,left,0.4451725000399165,None,3,2.4701539169764146,None,18,0,18,0,114.68448079196969,,,,,,,,,114.66869604197564,114.68448079196969,0.00011666701175272465,115.66741454199655,19,1,0.5,0.7,0.2,115.66768066701479,115.67323833302362,115.67323833302362,115.67323833302362,115.67323833302362,116.12137529201573,left,0.4451725000399165,None,left,0.4451725000399165,0.5,0,116.14031883300049,116.14663174998714,116.14663174998714,116.14663174998714,116.14663174998714,118.12220933299977,3,2.4701539169764146,118.13551483297488,120.61835354199866,3,120.61852091702167,120.62691916699987,121.62572445801925,121.6183880000026,115.67323833302362,118.14257587498287,118.14257587498287,118.14257587498287,118.14257587498287,118.14257587498287,2.4701539169764146,None,,,,064132,001,2025-08-12_15h28.30.784,regret_experiment,2024.2.4,122.70114342695148,1,0.5,0.7,0.2,2025-08-12 15h28.36.523670 -0700,
19,0,19,up,0.3281362080015242,None,None,,,19,0,19,0,121.62572445801925,,,,,,,,,121.61900533299195,121.62572445801925,0.000569417024962604,122.61737620801432,20,1,0.5,0.7,0.2,122.61765962501522,122.6237772500026,122.6237772500026,122.6237772500026,122.6237772500026,122.96782891702605,up,0.3281362080015242,None,up,0.3281362080015242,0.7,1,122.98766345798504,122.99513795797247,122.99513795797247,122.99513795797247,122.99513795797247,124.97449795797002,NA,NA,124.97480804199586,124.97486249997746,None,124.97493795800256,124.98367087502265,125.97338091698475,125.96749908302445,122.6237772500026,,,,,,,,,,,064132,001,2025-08-12_15h28.30.784,regret_experiment,2024.2.4,122.70114342695148,1,0.5,0.7,0.2,2025-08-12 15h28.36.523670 -0700,
20,0,20,right,0.4389616249827668,None,3,0.5602372499997728,None,20,0,20,0,125.97338091698475,,,,,,,,,125.96790120797232,125.97338091698475,0.009522249980363995,126.9567533750087,21,1,0.5,0.7,0.2,126.95697383297374,126.97288875002414,126.97288875002414,126.97288875002414,126.97288875002414,127.41897654201603,right,0.4389616249827668,None,right,0.4389616249827668,0.2,0,127.439891542017,127.4474622500129,127.4474622500129,127.4474622500129,127.4474622500129,129.42398908297764,3,0.5602372499997728,129.43615766701987,130.00844554201467,3,130.00854000000982,130.01687350001885,131.00665254198248,131.00072341697523,126.96698700002162,129.44340016698698,129.44340016698698,129.44340016698698,129.44340016698698,129.44340016698698,0.5602372499997728,None,,,,064132,001,2025-08-12_15h28.30.784,regret_experiment,2024.2.4,122.70114342695148,1,0.5,0.7,0.2,2025-08-12 15h28.36.523670 -0700,
21,0,21,left,0.3178234589868225,None,2,1.2415342910098843,None,21,0,21,0,131.00665254198248,,,,,,,,,131.00112608302152,131.00665254198248,0.00851045799208805,132.00472933298443,22,1,0.5,0.7,0.2,132.00508212501882,132.01714850001736,132.01714850001736,132.01714850001736,132.01714850001736,132.34109449997777,left,0.3178234589868225,None,left,0.3178234589868225,0.5,0,132.36044474999653,132.36819087498588,132.36819087498588,132.36819087498588,132.36819087498588,134.35095537500456,2,1.2415342910098843,134.36328791698907,135.61911579198204,2,135.61925004201476,135.6273985420121,136.62318470800528,136.61723966698628,132.01714850001736,134.37040916702244,134.37040916702244,134.37040916702244,134.37040916702244,134.37040916702244,1.2415342910098843,None,,,,064132,001,2025-08-12_15h28.30.784,regret_experiment,2024.2.4,122.70114342695148,1,0.5,0.7,0.2,2025-08-12 15h28.36.523670 -0700,
22,0,22,up,0.3942933750222437,None,None,,,22,0,22,0,136.62318470800528,,,,,,,,,136.61767562502064,136.62318470800528,0.004025167028885335,137.61827691702638,23,1,0.5,0.7,0.2,137.61871800001245,137.62606795801548,137.62606795801548,137.62606795801548,137.62606795801548,138.02474904200062,up,0.3942933750222437,None,up,0.3942933750222437,0.7,1,138.04450820799684,138.05238700000336,138.05238700000336,138.05238700000336,138.05238700000336,140.03427250002278,NA,NA,140.0346329580061,140.03469683299772,None,140.0347727080225,140.0395089579979,141.0338592500193,141.0242561249761,137.62606795801548,,,,,,,,,,,064132,001,2025-08-12_15h28.30.784,regret_experiment,2024.2.4,122.70114342695148,1,0.5,0.7,0.2,2025-08-12 15h28.36.523670 -0700,
23,0,23,up,0.3723190419841558,None,None,,,23,0,23,0,141.0338592500193,,,,,,,,,141.02463745797286,141.0338592500193,-0.0007908749976195395,142.01805858302396,24,1,0.5,0.7,0.2,142.01828854199266,142.0242382499855,142.0242382499855,142.0242382499855,142.0242382499855,142.40187241701642,up,0.3723190419841558,None,up,0.3723190419841558,0.7,1,142.42028879199643,142.42770770797506,142.42770770797506,142.42770770797506,142.42770770797506,144.4059525000048,NA,NA,144.40626029198756,144.40631179197226,None,144.40638841700274,144.4170509579708,145.40798079199158,145.40105649997713,142.0242382499855,,,,,,,,,,,064132,001,2025-08-12_15h28.30.784,regret_experiment,2024.2.4,122.70114342695148,1,0.5,0.7,0.2,2025-08-12 15h28.36.523670 -0700,
24,0,24,right,0.3457904169918038,None,None,,,24,0,24,0,145.40798079199158,,,,,,,,,145.4016015829984,145.40798079199158,0.0016789170331321657,146.40083025000058,25,1,0.5,0.7,0.2,146.40108579199295,146.40655549999792,146.40655549999792,146.40655549999792,146.40655549999792,146.75895041698823,right,0.3457904169918038,None,right,0.3457904169918038,0.2,1,146.77692929201294,146.78496429201914,146.78496429201914,146.78496429201914,146.78496429201914,148.76709600002505,NA,NA,148.76736879197415,148.7674238330219,None,148.7675166670233,148.77224675001344,,149.76779837498907,146.40655549999792,,,,,,,,,,,064132,001,2025-08-12_15h28.30.784,regret_experiment,2024.2.4,122.70114342695148,1,0.5,0.7,0.2,2025-08-12 15h28.36.523670 -0700,
25,0,25,up,0.5503647919977084,None,1,0.5478824999881908,None,25,0,25,0,149.7760479170247,,,,,,,,,149.7684441669844,149.7760479170247,0.0009979159804061055,150.76743050001096,26,1,0.5,0.7,0.2,150.7676946669817,150.7737521249801,150.7737521249801,150.7737521249801,150.7737521249801,151.33673454198288,up,0.5503647919977084,None,up,0.5503647919977084,0.7,0,151.35753899998963,151.36542287498014,151.36542287498014,151.36542287498014,151.36542287498014,153.3410584999947,1,0.5478824999881908,153.35308450000593,153.9183339580195,1,153.91845545801334,153.928526957985,154.92531899997266,154.9182920830208,150.7737521249801,153.36019325000234,153.36019325000234,153.36019325000234,153.36019325000234,153.36019325000234,0.5478824999881908,None,,,,064132,001,2025-08-12_15h28.30.784,regret_experiment,2024.2.4,122.70114342695148,1,0.5,0.7,0.2,2025-08-12 15h28.36.523670 -0700,
26,0,26,left,0.720901166961994,None,1,0.43287091702222824,None,26,0,26,0,154.92531899997266,,,,,,,,,154.9187972919899,154.92531899997266,0.0004135830095037818,155.91769462497905,27,1,0.5,0.7,0.2,155.91794637497514,155.9239927919698,155.9239927919698,155.9239927919698,155.9239927919698,156.6518255000119,left,0.720901166961994,None,left,0.720901166961994,0.5,0,156.67123516701395,156.67859641701216,156.67859641701216,156.67859641701216,156.67859641701216,158.6568942500162,1,0.43287091702222824,158.66830962500535,159.1196753749973,1,159.11984483298147,159.12817450001603,160.12327599996934,160.11736270796973,155.9239927919698,158.67502529197372,158.67502529197372,158.67502529197372,158.67502529197372,158.67502529197372,0.43287091702222824,None,,,,064132,001,2025-08-12_15h28.30.784,regret_experiment,2024.2.4,122.70114342695148,1,0.5,0.7,0.2,2025-08-12 15h28.36.523670 -0700,
27,0,27,up,0.5430748329963535,None,None,,,27,0,27,0,160.12327599996934,,,,,,,,,160.1177532079746,160.12327599996934,0.003531792026478797,161.10747879202245,28,1,0.5,0.7,0.2,161.10775945801288,161.11729533300968,161.11729533300968,161.11729533300968,161.11729533300968,161.66813995799748,up,0.5430748329963535,None,up,0.5430748329963535,0.7,1,161.68656979198568,161.69441950001055,161.69441950001055,161.69441950001055,161.69441950001055,163.67293779196916,NA,NA,163.67322466697078,163.67328962497413,None,163.67336387501564,163.68373829202028,164.67330395797035,164.66743700002553,161.11729533300968,,,,,,,,,,,064132,001,2025-08-12_15h28.30.784,regret_experiment,2024.2.4,122.70114342695148,1,0.5,0.7,0.2,2025-08-12 15h28.36.523670 -0700,
28,0,28,up,0.46871220797766,None,2,2.874953792023007,None,28,0,28,0,164.67330395797035,,,,,,,,,164.6678667080123,164.67330395797035,1.291598891839385e-05,165.65690483298386,29,1,0.5,0.7,0.2,165.65722062496934,165.66692241700366,165.66692241700366,165.66692241700366,165.66692241700366,166.1402479999815,up,0.46871220797766,None,up,0.46871220797766,0.7,0,166.1588210830232,166.16731049999362,166.16731049999362,166.16731049999362,166.16731049999362,168.15054595802212,2,2.874953792023007,168.16267400002107,171.05175987497205,2,171.05188991699833,171.06007991702063,172.0576679580263,172.05145658302354,165.66692241700366,168.16922491701553,168.16922491701553,168.16922491701553,168.16922491701553,168.16922491701553,2.874953792023007,None,,,,064132,001,2025-08-12_15h28.30.784,regret_experiment,2024.2.4,122.70114342695148,1,0.5,0.7,0.2,2025-08-12 15h28.36.523670 -0700,
29,0,29,right,0.3945016660145484,None,3,1.3577340420451947,None,29,0,29,0,172.0576679580263,,,,,,,,,172.05184983299114,172.0576679580263,2.5874993298202753e-05,173.05095591698773,30,1,0.5,0.7,0.2,173.05116645799717,173.05784820800181,173.05784820800181,173.05784820800181,173.05784820800181,173.4572735420079,right,0.3945016660145484,None,right,0.3945016660145484,0.2,0,173.47658395802137,173.48498741700314,173.48498741700314,173.48498741700314,173.48498741700314,175.46677645802265,3,1.3577340420451947,175.47267558297608,176.84027458302444,3,176.8404855420231,176.8502123330254,177.85045712499414,177.8349081670167,173.05784820800181,175.4784038750222,175.4784038750222,175.4784038750222,175.4784038750222,175.4784038750222,1.3577340420451947,None,,,,064132,001,2025-08-12_15h28.30.784,regret_experiment,2024.2.4,122.70114342695148,1,0.5,0.7,0.2,2025-08-12 15h28.36.523670 -0700,
30,0,30,left,0.3320557500119321,None,None,,,30,0,30,0,177.85045712499414,,,,,,,,,177.83532179199392,177.85045712499414,0.010092167009133846,178.83408437500475,31,1,0.5,0.7,0.2,178.83434337499784,178.84029058297165,178.84029058297165,178.84029058297165,178.84029058297165,179.1739478749805,left,0.3320557500119321,None,left,0.3320557500119321,0.5,1,179.19354483298957,179.2011339169694,179.2011339169694,179.2011339169694,179.2011339169694,181.1837543330039,NA,NA,181.18406254198635,181.18412887497107,None,181.18421183299506,181.1894968749839,,182.18436054198537,178.84029058297165,,,,,,,,,,,064132,001,2025-08-12_15h28.30.784,regret_experiment,2024.2.4,122.70114342695148,1,0.5,0.7,0.2,2025-08-12 15h28.36.523670 -0700,
31,0,31,up,0.2853797919815406,None,None,,,31,0,31,0,182.19140679197153,,,,,,,,,182.1849627919728,182.19140679197153,0.0008154580136761069,183.18400829198072,32,1,0.5,0.7,0.2,183.18441612500465,183.19042091700248,183.19042091700248,183.19042091700248,183.19042091700248,183.48467829200672,up,0.2853797919815406,None,up,0.2853797919815406,0.7,0,183.50458933302434,183.51159891701536,183.51159891701536,183.51159891701536,183.51159891701536,185.48943850002252,NA,NA,185.4897387920064,185.4897910419968,None,185.48987024999224,185.50045879202662,186.49131770798704,186.48460562498076,183.19042091700248,,,,,,,,,,,064132,001,2025-08-12_15h28.30.784,regret_experiment,2024.2.4,122.70114342695148,1,0.5,0.7,0.2,2025-08-12 15h28.36.523670 -0700,
32,0,32,left,0.6644884169800207,None,None,,,32,0,32,0,186.49131770798704,,,,,,,,,186.4851936249761,186.49131770798704,0.0015241249930113554,187.48444404196925,33,1,0.5,0.7,0.2,187.48469120799564,187.49169058300322,187.49169058300322,187.49169058300322,187.49169058300322,188.15782837499864,left,0.6644884169800207,None,left,0.6644884169800207,0.5,1,188.17564908298664,188.1840629579965,188.1840629579965,188.1840629579965,188.1840629579965,190.1672069170163,NA,NA,190.16799887502566,190.16810741700465,None,190.168225292,190.17406375001883,191.17368916701525,191.16733700002078,187.49169058300322,,,,,,,,,,,064132,001,2025-08-12_15h28.30.784,regret_experiment,2024.2.4,122.70114342695148,1,0.5,0.7,0.2,2025-08-12 15h28.36.523670 -0700,
33,0,33,right,0.4298220829805359,None,None,,,33,0,33,0,191.17368916701525,,,,,,,,,191.1677339170128,191.17368916701525,-0.0004170840256847441,192.1576543750125,34,1,0.5,0.7,0.2,192.15796608297387,192.1669933749945,192.1669933749945,192.1669933749945,192.1669933749945,192.6016901669791,right,0.4298220829805359,None,right,0.4298220829805359,0.2,0,192.62196575000416,192.62943320797058,192.62943320797058,192.62943320797058,192.62943320797058,194.60555741697317,NA,NA,194.60596429201541,194.606028374983,None,194.60611387499375,194.6170436249813,195.60659216699423,195.60076812497573,192.1669933749945,,,,,,,,,,,064132,001,2025-08-12_15h28.30.784,regret_experiment,2024.2.4,122.70114342695148,1,0.5,0.7,0.2,2025-08-12 15h28.36.523670 -0700,
34,0,34,up,0.4442915830295533,None,None,,,34,0,34,0,195.60659216699423,,,,,,,,,195.60113987501245,195.60659216699423,0.0005607500206679106,196.5898715420044,35,1,0.5,0.7,0.2,196.59000283299247,196.600072250003,196.600072250003,196.600072250003,196.600072250003,197.05262662499445,up,0.4442915830295533,None,up,0.4442915830295533,0.7,1,197.07127908297116,197.07910962501774,197.07910962501774,197.07910962501774,197.07910962501774,199.05786729202373,NA,NA,199.0583328329958,199.05838524998398,None,199.0584728330141,199.06708466698183,200.0580056249746,200.05113108298974,196.600072250003,,,,,,,,,,,064132,001,2025-08-12_15h28.30.784,regret_experiment,2024.2.4,122.70114342695148,1,0.5,0.7,0.2,2025-08-12 15h28.36.523670 -0700,
35,0,35,left,0.4904577079578303,None,None,,,35,0,35,0,200.0580056249746,,,,,,,,,200.05174779199297,200.0580056249746,-0.00038225000025704503,201.0412067080033,36,1,0.5,0.7,0.2,201.04146525001852,201.0503036250011,201.0503036250011,201.0503036250011,201.0503036250011,201.5515921249753,left,0.4904577079578303,None,left,0.4904577079578303,0.5,0,201.57114266697317,201.57918458298082,201.57918458298082,201.57918458298082,201.57918458298082,203.56742091698106,NA,NA,203.56792825000593,203.5680063330219,None,203.56812750000972,203.58370541699696,204.5844153329963,204.5681910829735,201.0503036250011,,,,,,,,,,,064132,001,2025-08-12_15h28.30.784,regret_experiment,2024.2.4,122.70114342695148,1,0.5,0.7,0.2,2025-08-12 15h28.36.523670 -0700,
36,0,36,left,0.3443399160169065,None,None,,,36,0,36,0,204.5844153329963,,,,,,,,,204.56876537500648,204.5844153329963,0.000719207979273051,205.56813558301656,37,1,0.5,0.7,0.2,205.56842837500153,205.57538187497994,205.57538187497994,205.57538187497994,205.57538187497994,205.92524766700808,left,0.3443399160169065,None,left,0.3443399160169065,0.5,0,205.9460517920088,205.9539794580196,205.9539794580196,205.9539794580196,205.9539794580196,207.93391145800706,NA,NA,207.93420591700124,207.93426816700958,None,207.93435275001684,207.93964449997293,208.94074862496927,208.93434791697655,205.57538187497994,,,,,,,,,,,064132,001,2025-08-12_15h28.30.784,regret_experiment,2024.2.4,122.70114342695148,1,0.5,0.7,0.2,2025-08-12 15h28.36.523670 -0700,
37,0,37,right,0.36738641699776053,None,None,,,37,0,37,0,208.94074862496927,,,,,,,,,208.93494891701266,208.94074862496927,0.0006582090281881392,209.93437350000022,38,1,0.5,0.7,0.2,209.9346643749741,209.94143416697625,209.94143416697625,209.94143416697625,209.94143416697625,210.31895362498472,right,0.36738641699776053,None,right,0.36738641699776053,0.2,1,210.33741483301856,210.34527929197066,210.34527929197066,210.34527929197066,210.34527929197066,212.3223860830185,NA,NA,212.32278687501093,212.32284454198088,None,212.32293495797785,212.33380195801146,213.32307808299083,213.31731274997583,,,,,,,,,,,,064132,001,2025-08-12_15h28.30.784,regret_experiment,2024.2.4,122.70114342695148,1,0.5,0.7,0.2,2025-08-12 15h28.36.523670 -0700,
38,0,38,up,0.5763232090394013,None,None,,,38,0,38,0,213.32307808299083,,,,,,,,,213.3177378749824,213.32307808299083,0.0002437080256640911,214.30770320800366,39,1,0.5,0.7,0.2,214.3080950829899,214.31635391700547,214.31635391700547,214.31635391700547,214.31635391700547,214.9024034999893,up,0.5763232090394013,None,up,0.5763232090394013,0.7,1,214.9201878749882,214.92815716698533,214.92815716698533,214.92815716698533,214.92815716698533,216.91726479202043,NA,NA,216.9176972080022,216.9177679999848,None,216.91785391699523,216.92325720802182,217.91704270802438,217.90730600000825,214.31635391700547,,,,,,,,,,,064132,001,2025-08-12_15h28.30.784,regret_experiment,2024.2.4,122.70114342695148,1,0.5,0.7,0.2,2025-08-12 15h28.36.523670 -0700,
39,0,39,right,0.43409216694999486,None,None,,,39,0,39,0,217.91704270802438,,,,,,,,,217.90770074998727,217.91704270802438,-0.0007349580409936607,218.9001751249889,40,1,0.5,0.7,0.2,218.90043904201593,218.91795495798578,218.91795495798578,218.91795495798578,218.91795495798578,219.3579142499948,right,0.43409216694999486,None,right,0.43409216694999486,0.2,0,219.3799976669834,219.38769612502074,219.38769612502074,219.38769612502074,219.38769612502074,221.36772491701413,NA,NA,221.36803970800247,221.36809229198843,None,221.36816991702653,221.37335429200903,222.3738410830265,222.3674759999849,218.90544541698182,,,,,,,,,,,064132,001,2025-08-12_15h28.30.784,regret_experiment,2024.2.4,122.70114342695148,1,0.5,0.7,0.2,2025-08-12 15h28.36.523670 -0700,
40,0,40,left,0.39780224999412894,None,None,,,40,0,40,0,222.3738410830265,,,,,,,,,222.36790775001282,222.3738410830265,-0.00020741595653817058,223.3682900419808,41,1,0.5,0.7,0.2,223.3686279170215,223.3751775000128,223.3751775000128,223.3751775000128,223.3751775000128,223.77525599999353,left,0.39780224999412894,None,left,0.39780224999412894,0.5,0,223.7955165419844,223.80341604200657,223.80341604200657,223.80341604200657,223.80341604200657,225.7837782499846,NA,NA,225.78411587502342,225.78417662502034,None,225.78426687500905,225.7895026250044,226.78385570802493,226.7735367079731,223.3751775000128,,,,,,,,,,,064132,001,2025-08-12_15h28.30.784,regret_experiment,2024.2.4,122.70114342695148,1,0.5,0.7,0.2,2025-08-12 15h28.36.523670 -0700,
41,0,41,up,0.39848979096859694,None,None,,,41,0,41,0,226.78385570802493,,,,,,,,,226.77376950002508,226.78385570802493,-0.00033062498550862074,227.76791824999964,42,1,0.5,0.7,0.2,227.7682030830183,227.77426091697998,227.77426091697998,227.77426091697998,227.77426091697998,228.18597912497353,up,0.39848979096859694,None,up,0.39848979096859694,0.7,1,228.20509462500922,228.2132268329733,228.2132268329733,228.2132268329733,228.2132268329733,230.1890617919853,NA,NA,230.18938770797104,230.18944220797857,None,230.189533207973,230.20115766697563,231.19099416700192,231.18484933301806,227.77426091697998,,,,,,,,,,,064132,001,2025-08-12_15h28.30.784,regret_experiment,2024.2.4,122.70114342695148,1,0.5,0.7,0.2,2025-08-12 15h28.36.523670 -0700,
42,0,42,right,0.37275337503524497,None,None,,,42,0,42,0,231.19099416700192,,,,,,,,,231.18530974996975,231.19099416700192,0.001581709017045796,232.17392887501046,43,1,0.5,0.7,0.2,232.17423308297293,232.18363762501394,232.18363762501394,232.18363762501394,232.18363762501394,232.55802050000057,right,0.37275337503524497,None,right,0.37275337503524497,0.2,1,232.57630741700996,232.58492191700498,232.58492191700498,232.58492191700498,232.58492191700498,234.56641529197805,NA,NA,234.566876375,234.5669497079798,None,234.56703320797533,234.57332216697978,235.567130542011,235.5582215830218,232.18363762501394,,,,,,,,,,,064132,001,2025-08-12_15h28.30.784,regret_experiment,2024.2.4,122.70114342695148,1,0.5,0.7,0.2,2025-08-12 15h28.36.523670 -0700,
43,0,43,left,0.4132771670119837,None,None,,,43,0,43,0,235.567130542011,,,,,,,,,235.55864495801507,235.567130542011,0.0001829169923439622,236.55167424998945,44,1,0.5,0.7,0.2,236.55207974999212,236.5675561670214,236.5675561670214,236.5675561670214,236.5675561670214,236.98640258301748,left,0.4132771670119837,None,left,0.4132771670119837,0.5,0,237.00769104197389,237.01504904200556,237.01504904200556,237.01504904200556,237.01504904200556,238.98910920799244,NA,NA,238.9893729580217,238.98941733298125,None,238.98950074997265,239.00033391697798,239.99214091699105,239.98485737497685,236.5675561670214,,,,,,,,,,,064132,001,2025-08-12_15h28.30.784,regret_experiment,2024.2.4,122.70114342695148,1,0.5,0.7,0.2,2025-08-12 15h28.36.523670 -0700,
44,0,44,right,0.3111851660069078,None,None,,,44,0,44,0,239.99214091699105,,,,,,,,,239.9854216669919,239.99214091699105,0.0027398329693824053,240.98475504200906,45,1,0.5,0.7,0.2,240.9850862500025,240.99161266698502,240.99161266698502,240.99161266698502,240.99161266698502,241.30764779198216,right,0.3111851660069078,None,right,0.3111851660069078,0.2,0,241.3266922920011,241.33511116699083,241.33511116699083,241.33511116699083,241.33511116699083,243.3080699170241,NA,NA,243.30851120798616,243.30857595801353,None,243.30865337501746,243.31660362501862,244.30701316701015,244.3008496669936,240.99161266698502,,,,,,,,,,,064132,001,2025-08-12_15h28.30.784,regret_experiment,2024.2.4,122.70114342695148,1,0.5,0.7,0.2,2025-08-12 15h28.36.523670 -0700,
45,0,45,right,0.33006562502123415,None,None,,,45,0,45,0,244.30701316701015,,,,,,,,,244.30131679197075,244.30701316701015,0.008740124991163611,245.29142108297674,46,1,0.5,0.7,0.2,245.29171908297576,245.29879970801994,245.29879970801994,245.29879970801994,245.29879970801994,245.63473487499868,right,0.33006562502123415,None,right,0.33006562502123415,0.2,0,245.65476133301854,245.66281020798488,245.66281020798488,245.66281020798488,245.66281020798488,247.63927587500075,NA,NA,247.63974404201144,247.6398034999729,None,247.63988362497184,247.65035058301874,248.639689292002,248.6340224579908,245.29879970801994,,,,,,,,,,,064132,001,2025-08-12_15h28.30.784,regret_experiment,2024.2.4,122.70114342695148,1,0.5,0.7,0.2,2025-08-12 15h28.36.523670 -0700,
46,0,46,right,0.3190236249938607,None,None,,,46,0,46,0,248.639689292002,,,,,,,,,248.6343745830236,248.639689292002,-0.00012095901183784008,249.6242797920131,47,1,0.5,0.7,0.2,249.6246319169877,249.63371416699374,249.63371416699374,249.63371416699374,249.63371416699374,249.9572000419721,right,0.3190236249938607,None,right,0.3190236249938607,0.2,1,249.97557241702452,249.98411812499398,249.98411812499398,249.98411812499398,249.98411812499398,251.96786091697868,NA,NA,251.96814770798665,251.9682080830098,None,251.96828049997566,251.9837493749801,252.97709399997257,252.9685744169983,249.63371416699374,,,,,,,,,,,064132,001,2025-08-12_15h28.30.784,regret_experiment,2024.2.4,122.70114342695148,1,0.5,0.7,0.2,2025-08-12 15h28.36.523670 -0700,
47,0,47,right,0.5965649170102552,None,None,,,47,0,47,0,252.97709399997257,,,,,,,,,252.96930220798822,252.97709399997257,0.001087375043425709,253.96838079200825,48,1,0.5,0.7,0.2,253.96885783300968,253.9763944579754,253.9763944579754,253.9763944579754,253.9763944579754,254.57511579198763,right,0.5965649170102552,None,right,0.5965649170102552,0.2,0,254.59458704199642,254.60288162500365,254.60288162500365,254.60288162500365,254.60288162500365,256.5843046249938,NA,NA,256.58461929199984,256.58467200002633,None,256.58474654197926,256.60097808297724,257.5914445000235,257.58395300002303,253.9763944579754,,,,,,,,,,,064132,001,2025-08-12_15h28.30.784,regret_experiment,2024.2.4,122.70114342695148,1,0.5,0.7,0.2,2025-08-12 15h28.36.523670 -0700,
48,0,48,left,0.7108961670310237,None,None,,,48,0,48,0,257.5914445000235,,,,,,,,,257.584692000004,257.5914445000235,1.550000160932541e-05,258.584355207975,49,1,0.5,0.7,0.2,258.5847625830211,258.59115470800316,258.59115470800316,258.59115470800316,258.59115470800316,259.30814258300234,left,0.7108961670310237,None,left,0.7108961670310237,0.5,0,259.3284365829895,259.3364364579902,259.3364364579902,259.3364364579902,259.3364364579902,261.3171810419881,NA,NA,261.31751904200064,261.3175710000214,None,261.317644166993,261.3229138330207,262.31700058298884,262.3061180419754,258.59115470800316,,,,,,,,,,,064132,001,2025-08-12_15h28.30.784,regret_experiment,2024.2.4,122.70114342695148,1,0.5,0.7,0.2,2025-08-12 15h28.36.523670 -0700,
49,0,49,up,0.37799712497508153,None,None,,,49,0,49,0,262.31700058298884,,,,,,,,,262.30663616699167,262.31700058298884,-0.0005675000138580799,263.3017672499991,50,1,0.5,0.7,0.2,263.3021169169806,263.30821754201315,263.30821754201315,263.30821754201315,263.30821754201315,263.6906724169967,up,0.37799712497508153,None,up,0.37799712497508153,0.7,1,263.7117236669874,263.71985674998723,263.71985674998723,263.71985674998723,263.71985674998723,265.7004001250025,NA,NA,265.7007014579722,265.70075454202015,None,265.70083116699243,265.70612208300736,266.7005534999771,266.6889011670137,263.30821754201315,,,,,,,,,,,064132,001,2025-08-12_15h28.30.784,regret_experiment,2024.2.4,122.70114342695148,1,0.5,0.7,0.2,2025-08-12 15h28.36.523670 -0700,
50,0,50,left,1.0336758330231532,None,None,,,50,0,50,0,266.7005534999771,,,,,,,,,266.6893277919735,266.7005534999771,-0.00015904102474451065,267.68404291698243,51,1,0.5,0.7,0.2,267.6843012080062,267.6902253329754,267.6902253329754,267.6902253329754,267.6902253329754,268.74043770798016,left,1.0336758330231532,None,left,1.0336758330231532,0.5,1,268.75722037500236,268.7645019170013,268.7645019170013,268.7645019170013,268.7645019170013,270.75085691700224,NA,NA,270.75126908300444,270.751338083006,None,270.75143020797987,270.757669374987,271.75704645802034,271.75075250002556,267.6902253329754,,,,,,,,,,,064132,001,2025-08-12_15h28.30.784,regret_experiment,2024.2.4,122.70114342695148,1,0.5,0.7,0.2,2025-08-12 15h28.36.523670 -0700,
51,0,51,up,0.4940150000038557,None,None,,,51,0,51,0,271.75704645802034,,,,,,,,,271.7511722079944,271.75704645802034,-0.00019945803796872497,272.75129975000164,52,1,0.5,0.7,0.2,272.75157570798183,272.7574842919712,272.7574842919712,272.7574842919712,272.7574842919712,273.259152374987,up,0.4940150000038557,None,up,0.4940150000038557,0.7,1,273.27719654201064,273.28521004196955,273.28521004196955,273.28521004196955,273.28521004196955,275.26803650002694,NA,NA,275.26850666699465,275.2685759579763,None,275.26867816701997,275.28442137502134,276.2747275829897,276.2676915830234,272.7574842919712,,,,,,,,,,,064132,001,2025-08-12_15h28.30.784,regret_experiment,2024.2.4,122.70114342695148,1,0.5,0.7,0.2,2025-08-12 15h28.36.523670 -0700,
52,0,52,right,0.35361870797351,None,None,,,52,0,52,0,276.2747275829897,,,,,,,,,276.2682221250143,276.2747275829897,-0.0003902500029653311,277.25775504199555,53,1,0.5,0.7,0.2,277.2581008329871,277.26696545799496,277.26696545799496,277.26696545799496,277.26696545799496,277.62484654202126,right,0.35361870797351,None,right,0.35361870797351,0.2,1,277.6429551669862,277.65031608298887,277.65031608298887,277.65031608298887,277.65031608298887,279.6339025829802,NA,NA,279.63443908299087,279.6345115000149,None,279.63460708298953,279.6406827499741,280.64291366701946,280.63508137501776,277.26696545799496,,,,,,,,,,,064132,001,2025-08-12_15h28.30.784,regret_experiment,2024.2.4,122.70114342695148,1,0.5,0.7,0.2,2025-08-12 15h28.36.523670 -0700,
53,0,53,left,0.4849285410018638,None,None,,,53,0,53,0,280.64291366701946,,,,,,,,,280.63570266700117,280.64291366701946,0.001158708008006215,281.63406633300474,54,1,0.5,0.7,0.2,281.6343204170116,281.63994916697266,281.63994916697266,281.63994916697266,281.63994916697266,282.1349496250041,left,0.4849285410018638,None,left,0.4849285410018638,0.5,0,282.15599112497875,282.1634585420252,282.1634585420252,282.1634585420252,282.1634585420252,284.151379042014,NA,NA,284.15168487501796,284.1517402919708,None,284.1518170000054,284.1678553749807,285.1582642919966,285.1507402919815,281.63994916697266,,,,,,,,,,,064132,001,2025-08-12_15h28.30.784,regret_experiment,2024.2.4,122.70114342695148,1,0.5,0.7,0.2,2025-08-12 15h28.36.523670 -0700,
54,0,54,up,0.40634733298793435,None,None,,,54,0,54,0,285.1582642919966,,,,,,,,,285.15115695801796,285.1582642919966,-0.0006068329676054418,286.1414751249831,55,1,0.5,0.7,0.2,286.1417306669755,286.15008433297044,286.15008433297044,286.15008433297044,286.15008433297044,286.5674988750252,up,0.40634733298793435,None,up,0.40634733298793435,0.7,1,286.5851492920192,286.5924034169875,286.5924034169875,286.5924034169875,286.5924034169875,288.5723408330232,NA,NA,288.57262637501117,288.57268004200887,None,288.5727533749887,288.58446162502514,289.57420941698365,289.5676967499894,286.15008433297044,,,,,,,,,,,064132,001,2025-08-12_15h28.30.784,regret_experiment,2024.2.4,122.70114342695148,1,0.5,0.7,0.2,2025-08-12 15h28.36.523670 -0700,
55,0,55,right,0.40454679203685373,None,None,,,55,0,55,0,289.57420941698365,,,,,,,,,289.5680708750151,289.57420941698365,0.001532958005554974,290.56823104200885,56,1,0.5,0.7,0.2,290.568628582987,290.5751167499693,290.5751167499693,290.5751167499693,290.5751167499693,290.9860899170162,right,0.40454679203685373,None,right,0.40454679203685373,0.2,0,291.00711683300324,291.01466041698586,291.01466041698586,291.01466041698586,291.01466041698586,292.99074095801916,NA,NA,292.9910515000229,292.9911028330098,None,292.99117699998897,293.0007410830003,293.989672583004,293.9839156669914,290.5751167499693,,,,,,,,,,,064132,001,2025-08-12_15h28.30.784,regret_experiment,2024.2.4,122.70114342695148,1,0.5,0.7,0.2,2025-08-12 15h28.36.523670 -0700,
56,0,56,up,0.35162133298581466,None,None,,,56,0,56,0,293.989672583004,,,,,,,,,293.98426995798945,293.989672583004,0.00932412501424551,294.9726867499994,57,1,0.5,0.7,0.2,294.9729578749975,294.9891547500156,294.9891547500156,294.9891547500156,294.9891547500156,295.35327637498267,up,0.35162133298581466,None,up,0.35162133298581466,0.7,1,295.3720709999907,295.3794237499824,295.3794237499824,295.3794237499824,295.3794237499824,297.3555706249899,NA,NA,297.355849708023,297.35590266698273,None,297.3559756670147,297.3671541669755,298.3567487919936,298.3508979170001,294.98373329197057,,,,,,,,,,,064132,001,2025-08-12_15h28.30.784,regret_experiment,2024.2.4,122.70114342695148,1,0.5,0.7,0.2,2025-08-12 15h28.36.523670 -0700,
57,0,57,left,0.4558594999834895,None,None,,,57,0,57,0,298.3567487919936,,,,,,,,,298.35129025002243,298.3567487919936,0.0008447089930996299,299.3507847079891,58,1,0.5,0.7,0.2,299.3510435000062,299.3570334580145,299.3570334580145,299.3570334580145,299.3570334580145,299.81809004198294,left,0.4558594999834895,None,left,0.4558594999834895,0.5,1,299.83645512501244,299.8443205829826,299.8443205829826,299.8443205829826,299.8443205829826,301.82227250002325,NA,NA,301.8225577920093,301.82260791701265,None,301.8226789999753,301.8343850420206,302.82316270802403,302.81724262499483,299.3570334580145,,,,,,,,,,,064132,001,2025-08-12_15h28.30.784,regret_experiment,2024.2.4,122.70114342695148,1,0.5,0.7,0.2,2025-08-12 15h28.36.523670 -0700,
58,0,58,up,0.37306958297267556,None,None,,,58,0,58,0,302.82316270802403,,,,,,,,,302.8176401670207,302.82316270802403,0.0006005410104990005,303.8077349580126,59,1,0.5,0.7,0.2,303.80801158299437,303.8153671249747,303.8153671249747,303.8153671249747,303.8153671249747,304.1904188329936,up,0.37306958297267556,None,up,0.37306958297267556,0.7,1,304.2079231669777,304.2154207919957,304.2154207919957,304.2154207919957,304.2154207919957,306.1910538750235,NA,NA,306.19133354199585,306.1913876250037,None,306.1914701249916,306.2011394579895,307.1915954169817,307.1851322079892,303.8153671249747,,,,,,,,,,,064132,001,2025-08-12_15h28.30.784,regret_experiment,2024.2.4,122.70114342695148,1,0.5,0.7,0.2,2025-08-12 15h28.36.523670 -0700,
59,0,59,right,0.45185699994908646,None,None,,,59,0,59,0,307.1915954169817,,,,,,,,,307.1857427919749,307.1915954169817,0.00021587498486042023,308.18499629199505,60,1,0.5,0.7,0.2,308.18529158300953,308.2004625829868,308.2004625829868,308.2004625829868,308.2004625829868,308.65673237497685,right,0.45185699994908646,None,right,0.45185699994908646,0.2,0,308.67663800000446,308.68504150002263,308.68504150002263,308.68504150002263,308.68504150002263,310.6677463329979,NA,NA,310.66824141697725,310.66831400000956,None,310.66840341698844,310.6844986670185,311.7032655419898,311.66808933299035,308.2004625829868,,,,,,,,,,,064132,001,2025-08-12_15h28.30.784,regret_experiment,2024.2.4,122.70114342695148,1,0.5,0.7,0.2,2025-08-12 15h28.36.523670 -0700,
,,,,,,,,,,,,,,,,,,,,,,,,,,,,,,,,,,,,,,,,,,,,,,,,,,,,,,,,,,,,,,,,,,,N/A,311.6943008329836,311.7032655419898,,,,,,,,,,,,
