thisN,thisTrialN,thisRepN,key_resp_1.keys,key_resp_1.rt,key_resp_1.duration,regret_key.keys,regret_key.rt,regret_key.duration,trials.thisRepN,trials.thisTrialN,trials.thisN,trials.thisIndex,thisRow.t,notes,begin_exp.started,begin.started,advance_key.started,begin_exp.stopped,advance_key.keys,advance_key.rt,advance_key.duration,Fixation.started,fixcross.started,etRecord.started,Fixation.stopped,trial_num,participant_cond,prob_left,prob_up,prob_right,Choice.started,tree1_img.started,tree2_img.started,tree3_img.started,key_resp_1.started,Choice.stopped,trials.key_resp_1.keys,trials.key_resp_1.rt,trials.key_resp_1.duration,choice_key,choice_rt,choice_prob,points,Feedback.started,appleImage.started,tree1.started,tree2.started,tree3.started,Feedback.stopped,regret_rating,regret_rt,RegretRating.started,RegretRating.stopped,trials.regret_key.keys,ITI.started,blank_screen.started,blank_screen.stopped,ITI.stopped,fixcross.stopped,regret_scale.started,regret_key.started,rtree1.started,rtree2.started,rtree3.started,trials.regret_key.rt,trials.regret_key.duration,avg_regret,EndScreen.started,end_display.started,participant,session,date,expName,psychopyVersion,frameRate,participant_cond,prob_left,prob_up,prob_right,expStart,
,,,,,,,,,,,,,,,0.009810959047172219,0.020294625021051615,0.020294625021051615,2.2650067090289667,space,2.2039357920293696,None,,,,,,1,0.2,0.7,0.5,,,,,,,,,,,,,,,,,,,,,,,,,,,,,,,,,,,,,,,,076752,001,2025-08-13_16h20.41.907,regret_experiment,2024.2.4,None,1,0.2,0.7,0.5,2025-08-13 16h20.48.788582 -0700,
0,0,0,up,1.8334330000216141,None,None,,,0,0,0,0,2.8217292920453474,,,,,,,,,2.2667274170089513,2.8217292920453474,0.0016730829956941307,3.277504500001669,1,1,0.2,0.7,0.5,3.2776829170179553,3.2848670840030536,3.2848670840030536,3.2848670840030536,3.2848670840030536,5.129302209010348,up,1.8334330000216141,None,up,1.8334330000216141,0.7,1,5.150115334021393,5.272772750002332,5.272772750002332,5.272772750002332,5.272772750002332,7.133708709036,NA,NA,7.134028792032041,7.134088042017538,None,7.134173209022265,7.144193459011149,8.145345209049992,8.129095584037714,,,,,,,,,,,,076752,001,2025-08-13_16h20.41.907,regret_experiment,2024.2.4,None,1,0.2,0.7,0.5,2025-08-13 16h20.48.788582 -0700,
1,0,1,left,1.422749959048815,None,None,,,1,0,1,0,8.145345209049992,,,,,,,,,8.129482125048526,8.145345209049992,0.011249624949414283,9.128900667012203,2,1,0.2,0.7,0.5,9.129139584023505,9.144637625024188,9.144637625024188,9.144637625024188,9.144637625024188,10.580098792037461,left,1.422749959048815,None,left,1.422749959048815,0.2,1,10.598868291999679,10.60839395900257,10.60839395900257,10.60839395900257,10.60839395900257,12.595222959003877,NA,NA,12.595517292036675,12.595576292020269,None,12.595699333993252,12.611849834036548,13.773813875042833,13.59525845904136,9.144637625024188,,,,,,,,,,,076752,001,2025-08-13_16h20.41.907,regret_experiment,2024.2.4,None,1,0.2,0.7,0.5,2025-08-13 16h20.48.788582 -0700,
2,0,2,up,2.935090749990195,None,2,4.700824125029612,None,2,0,2,0,13.773813875042833,,,,,,,,,13.595663084008265,13.773813875042833,3.529194509610534e-05,14.598322459030896,3,1,0.2,0.7,0.5,14.598557999997865,14.610852375044487,14.610852375044487,14.610852375044487,14.610852375044487,17.553504792042077,up,2.935090749990195,None,up,2.935090749990195,0.7,0,17.573735125013627,17.581883709004615,17.581883709004615,17.581883709004615,17.581883709004615,19.561476209026296,2,4.700824125029612,19.576180042000487,24.296721292019356,2,24.296943916997407,24.311403167026583,25.311896042025182,25.295663375000004,,19.586595834000036,19.586595834000036,19.586595834000036,19.586595834000036,19.586595834000036,4.700824125029612,None,,,,076752,001,2025-08-13_16h20.41.907,regret_experiment,2024.2.4,None,1,0.2,0.7,0.5,2025-08-13 16h20.48.788582 -0700,
3,0,3,right,1.22366412502015,None,None,,,3,0,3,0,25.311896042025182,,,,,,,,,25.29609108401928,25.311896042025182,-0.00075104198185727,26.29998458403861,4,1,0.2,0.7,0.5,26.300306499993894,26.310859791992698,26.310859791992698,26.310859791992698,26.310859791992698,27.546416209021118,right,1.22366412502015,None,right,1.22366412502015,0.5,1,27.5657351250411,27.5739848340163,27.5739848340163,27.5739848340163,27.5739848340163,29.56211554200854,NA,NA,29.562377416994423,29.562433500017505,None,29.56252212502295,29.567777334013954,30.578109959024005,30.562411959050223,,,,,,,,,,,,076752,001,2025-08-13_16h20.41.907,regret_experiment,2024.2.4,None,1,0.2,0.7,0.5,2025-08-13 16h20.48.788582 -0700,
4,0,4,left,1.1981239590095356,None,1,1.176403958001174,None,4,0,4,0,30.578109959024005,,,,,,,,,30.562810167029966,30.578109959024005,0.0003416250110603869,31.562351959000807,5,1,0.2,0.7,0.5,31.562594584014732,31.57877920899773,31.57877920899773,31.57877920899773,31.57877920899773,32.77995312504936,left,1.1981239590095356,None,left,1.1981239590095356,0.2,0,32.800212709000334,32.80805541703012,32.80805541703012,32.80805541703012,32.80805541703012,34.795198959007394,1,1.176403958001174,34.80741670902353,35.99649820901686,1,35.99662099999841,36.01148650003597,37.0119332090253,36.995631084020715,31.57877920899773,34.81436120904982,34.81436120904982,34.81436120904982,34.81436120904982,34.81436120904982,1.176403958001174,None,,,,076752,001,2025-08-13_16h20.41.907,regret_experiment,2024.2.4,None,1,0.2,0.7,0.5,2025-08-13 16h20.48.788582 -0700,
5,0,5,up,1.2928848749725148,None,2,2.68383483402431,None,5,0,5,0,37.0119332090253,,,,,,,,,36.99601487501059,37.0119332090253,-0.000541832996532321,37.995026667020284,6,1,0.2,0.7,0.5,37.99528733402258,38.01097150001442,38.01097150001442,38.01097150001442,38.01097150001442,39.313975833996665,up,1.2928848749725148,None,up,1.2928848749725148,0.7,0,39.333697249996476,39.34156762500061,39.34156762500061,39.34156762500061,39.34156762500061,41.31587083404884,2,2.68383483402431,41.323629792022984,44.02948229201138,2,44.02960804203758,44.04423629201483,45.044246459030546,45.02836991701042,38.01097150001442,41.33143837499665,41.33143837499665,41.33143837499665,41.33143837499665,41.33143837499665,2.68383483402431,None,,,,076752,001,2025-08-13_16h20.41.907,regret_experiment,2024.2.4,None,1,0.2,0.7,0.5,2025-08-13 16h20.48.788582 -0700,
6,0,6,right,0.40478137496393174,None,None,,,6,0,6,0,45.044246459030546,,,,,,,,,45.02874437504215,45.044246459030546,-0.0008008750155568123,46.028163917013444,7,1,0.2,0.7,0.5,46.02842191699892,46.033574959030375,46.033574959030375,46.033574959030375,46.033574959030375,46.44613400002709,right,0.40478137496393174,None,right,0.40478137496393174,0.5,1,46.464473417028785,46.47161574999336,46.47161574999336,46.47161574999336,46.47161574999336,48.46191416704096,NA,NA,48.462188709003385,48.46224670903757,None,48.462327792018186,48.47805033402983,49.46703062503366,49.4612412090064,46.033574959030375,,,,,,,,,,,076752,001,2025-08-13_16h20.41.907,regret_experiment,2024.2.4,None,1,0.2,0.7,0.5,2025-08-13 16h20.48.788582 -0700,
7,0,7,up,0.6198482920299284,None,None,,,7,0,7,0,49.46703062503366,,,,,,,,,49.46162300003925,49.46703062503366,-0.0006510000093840063,50.46162316703703,8,1,0.2,0.7,0.5,50.46188950003125,50.46725895901909,50.46725895901909,50.46725895901909,50.46725895901909,51.09534233401064,up,0.6198482920299284,None,up,0.6198482920299284,0.7,1,51.11384754203027,51.120591875049286,51.120591875049286,51.120591875049286,51.120591875049286,53.112177125003655,NA,NA,53.112455792026594,53.11251591704786,None,53.11259295901982,53.128160917025525,54.11646062502405,54.11115258402424,50.46725895901909,,,,,,,,,,,076752,001,2025-08-13_16h20.41.907,regret_experiment,2024.2.4,None,1,0.2,0.7,0.5,2025-08-13 16h20.48.788582 -0700,
8,0,8,left,0.8228005409473553,None,None,,,8,0,8,0,54.11646062502405,,,,,,,,,54.11153179203393,54.11646062502405,0.003943624964449555,55.11229383404134,9,1,0.2,0.7,0.5,55.112568959011696,55.12768391700229,55.12768391700229,55.12768391700229,55.12768391700229,55.96319141704589,left,0.8228005409473553,None,left,0.8228005409473553,0.2,1,55.98114762501791,55.98857583402423,55.98857583402423,55.98857583402423,55.98857583402423,57.96601162501611,NA,NA,57.96647775004385,57.9665479590185,None,57.966668334032875,57.977529417024925,58.97802858403884,58.961910792044364,55.12768391700229,,,,,,,,,,,076752,001,2025-08-13_16h20.41.907,regret_experiment,2024.2.4,None,1,0.2,0.7,0.5,2025-08-13 16h20.48.788582 -0700,
9,0,9,right,0.37277679197723046,None,None,,,9,0,9,0,58.97802858403884,,,,,,,,,58.962278124992736,58.97802858403884,0.011446916963905096,59.962355875002686,10,1,0.2,0.7,0.5,59.9626327920123,59.978086334012914,59.978086334012914,59.978086334012914,59.978086334012914,60.353610792022664,right,0.37277679197723046,None,right,0.37277679197723046,0.5,1,60.37300145899644,60.38113587500993,60.38113587500993,60.38113587500993,60.38113587500993,62.36130662501091,NA,NA,62.36165783402976,62.36173108400544,None,62.361810917034745,62.36700425000163,63.366805833997205,63.36121904203901,59.978086334012914,,,,,,,,,,,076752,001,2025-08-13_16h20.41.907,regret_experiment,2024.2.4,None,1,0.2,0.7,0.5,2025-08-13 16h20.48.788582 -0700,
10,0,10,up,0.4300907499855384,None,None,,,10,0,10,0,63.366805833997205,,,,,,,,,63.361556709045544,63.366805833997205,-0.00019987497944384813,64.3495496250107,11,1,0.2,0.7,0.5,64.34975600003963,64.36086370900739,64.36086370900739,64.36086370900739,64.36086370900739,64.79594979202375,up,0.4300907499855384,None,up,0.4300907499855384,0.7,1,64.81455512501998,64.82260966702597,64.82260966702597,64.82260966702597,64.82260966702597,66.80152375000762,NA,NA,66.80184479203308,66.80189979204442,None,66.80200912500732,66.81127158401068,67.81172262504697,67.79570816701744,64.36086370900739,,,,,,,,,,,076752,001,2025-08-13_16h20.41.907,regret_experiment,2024.2.4,None,1,0.2,0.7,0.5,2025-08-13 16h20.48.788582 -0700,
11,0,11,left,0.29398949997266755,None,1,2.527422250015661,None,11,0,11,0,67.81172262504697,,,,,,,,,67.79608666704735,67.81172262504697,0.009810083021875471,68.79523920902284,12,1,0.2,0.7,0.5,68.79552529199282,68.80222941702232,68.80222941702232,68.80222941702232,68.80222941702232,69.11202837503515,left,0.29398949997266755,None,left,0.29398949997266755,0.2,0,69.13250779203372,69.13995716703357,69.13995716703357,69.13995716703357,69.13995716703357,71.11693941702833,1,2.527422250015661,71.12592566700187,73.66909174999455,1,73.66948949999642,73.67519487504615,74.67814850003924,74.66290341701824,68.80222941702232,71.13237629202195,71.13237629202195,71.13237629202195,71.13237629202195,71.13237629202195,2.527422250015661,None,,,,076752,001,2025-08-13_16h20.41.907,regret_experiment,2024.2.4,None,1,0.2,0.7,0.5,2025-08-13 16h20.48.788582 -0700,
12,0,12,up,0.57230341702234,None,None,,,12,0,12,0,74.67814850003924,,,,,,,,,74.66350758401677,74.67814850003924,0.008868500008247793,75.661149209016,13,1,0.2,0.7,0.5,75.66131554200547,75.66599808400497,75.66599808400497,75.66599808400497,75.66599808400497,76.24615208402975,up,0.57230341702234,None,up,0.57230341702234,0.7,1,76.26823095901636,76.27788508404046,76.27788508404046,76.27788508404046,76.27788508404046,78.24917520902818,NA,NA,78.24947700003395,78.24954099999741,None,78.24962058401434,78.26035158400191,79.2607237920165,79.24675575003494,75.66599808400497,,,,,,,,,,,076752,001,2025-08-13_16h20.41.907,regret_experiment,2024.2.4,None,1,0.2,0.7,0.5,2025-08-13 16h20.48.788582 -0700,
13,0,13,right,0.7017135000205599,None,1,0.6148468329920433,None,13,0,13,0,79.2607237920165,,,,,,,,,79.2472124590422,79.2607237920165,0.011186624993570149,80.24597637500847,14,1,0.2,0.7,0.5,80.24623662501108,80.2614889590186,80.2614889590186,80.2614889590186,80.2614889590186,80.96730854199268,right,0.7017135000205599,None,right,0.7017135000205599,0.5,0,80.98670629202388,80.99593325000023,80.99593325000023,80.99593325000023,80.99593325000023,82.97810429200763,1,0.6148468329920433,82.99232633400243,83.61967975000152,1,83.61988320900127,83.6309773750254,84.63231837505009,84.61597458401229,80.2614889590186,83.00019012502162,83.00019012502162,83.00019012502162,83.00019012502162,83.00019012502162,0.6148468329920433,None,,,,076752,001,2025-08-13_16h20.41.907,regret_experiment,2024.2.4,None,1,0.2,0.7,0.5,2025-08-13 16h20.48.788582 -0700,
14,0,14,up,0.7137642499874346,None,2,0.8598600829718634,None,14,0,14,0,84.63231837505009,,,,,,,,,84.61645941704046,84.63231837505009,0.012549958017189056,85.62828037503641,15,1,0.2,0.7,0.5,85.62916316703195,85.63726620899979,85.63726620899979,85.63726620899979,85.63726620899979,86.36360833403887,up,0.7137642499874346,None,up,0.7137642499874346,0.7,0,86.3861063340446,86.3948347090045,86.3948347090045,86.3948347090045,86.3948347090045,88.36746470903745,2,0.8598600829718634,88.38019808399258,89.25210191699443,2,89.25221745902672,89.26093787502032,90.25269662501523,90.24590058403555,,88.38705937500345,88.38705937500345,88.38705937500345,88.38705937500345,88.38705937500345,0.8598600829718634,None,,,,076752,001,2025-08-13_16h20.41.907,regret_experiment,2024.2.4,None,1,0.2,0.7,0.5,2025-08-13 16h20.48.788582 -0700,
15,0,15,left,0.43647899996722117,None,3,0.7988173750345595,None,15,0,15,0,90.25269662501523,,,,,,,,,90.24636300001293,90.25269662501523,0.0006125000072643161,91.24529387499206,16,1,0.2,0.7,0.5,91.24554920900846,91.25066008401336,91.25066008401336,91.25066008401336,91.25066008401336,91.69630012504058,left,0.43647899996722117,None,left,0.43647899996722117,0.2,0,91.71601433400065,91.72456283401698,91.72456283401698,91.72456283401698,91.72456283401698,93.7118823750061,3,0.7988173750345595,93.72341579204658,94.53436754201539,3,94.53447108401451,94.54281312500825,95.54486945900135,95.52832970902091,91.25066008401336,93.73110629204893,93.73110629204893,93.73110629204893,93.73110629204893,93.73110629204893,0.7988173750345595,None,,,,076752,001,2025-08-13_16h20.41.907,regret_experiment,2024.2.4,None,1,0.2,0.7,0.5,2025-08-13 16h20.48.788582 -0700,
16,0,16,right,0.9685138750355691,None,3,0.8542491660336964,None,16,0,16,0,95.54486945900135,,,,,,,,,95.52871495904401,95.54486945900135,0.010478041018359363,96.52839591703378,17,1,0.2,0.7,0.5,96.52867287502158,96.53428937500576,96.53428937500576,96.53428937500576,96.53428937500576,97.51191975001711,right,0.9685138750355691,None,right,0.9685138750355691,0.5,0,97.53188262501499,97.53965637501096,97.53965637501096,97.53965637501096,97.53965637501096,99.51448183401953,3,0.8542491660336964,99.52053012500983,100.38543187500909,3,100.38555729202926,100.39524483401328,101.39542891702149,101.37911791703664,96.53428937500576,99.52601833402878,99.52601833402878,99.52601833402878,99.52601833402878,99.52601833402878,0.8542491660336964,None,,,,076752,001,2025-08-13_16h20.41.907,regret_experiment,2024.2.4,None,1,0.2,0.7,0.5,2025-08-13 16h20.48.788582 -0700,
17,0,17,up,0.5876687499694526,None,None,,,17,0,17,0,101.39542891702149,,,,,,,,,101.37957204203121,101.39542891702149,0.00996937503805384,102.37898845900781,18,1,0.2,0.7,0.5,102.37926287500886,102.3953685000306,102.3953685000306,102.3953685000306,102.3953685000306,102.98551329202019,up,0.5876687499694526,None,up,0.5876687499694526,0.7,1,103.00647291704081,103.01399166701594,103.01399166701594,103.01399166701594,103.01399166701594,104.99509858404053,NA,NA,104.9953945419984,104.99544854200212,None,104.9955297090346,105.0006316670333,106.01269641704857,105.99566329200752,102.3953685000306,,,,,,,,,,,076752,001,2025-08-13_16h20.41.907,regret_experiment,2024.2.4,None,1,0.2,0.7,0.5,2025-08-13 16h20.48.788582 -0700,
18,0,18,left,0.9496376669849269,None,2,0.7884392919950187,None,18,0,18,0,106.01269641704857,,,,,,,,,105.99604570900556,106.01269641704857,0.0005689170211553574,106.99577483400935,19,1,0.2,0.7,0.5,106.99601566704223,107.00134054204682,107.00134054204682,107.00134054204682,107.00134054204682,107.96253587503452,left,0.9496376669849269,None,left,0.9496376669849269,0.2,0,107.9826143340324,107.99054387502838,107.99054387502838,107.99054387502838,107.99054387502838,109.96747341699665,2,0.7884392919950187,109.97989008401055,110.77921425004024,2,110.77934700000333,110.7846967499936,111.79530308401445,111.77893741702428,107.00134054204682,109.9869125840487,109.9869125840487,109.9869125840487,109.9869125840487,109.9869125840487,0.7884392919950187,None,,,,076752,001,2025-08-13_16h20.41.907,regret_experiment,2024.2.4,None,1,0.2,0.7,0.5,2025-08-13 16h20.48.788582 -0700,
19,0,19,right,0.44334629096556455,None,None,,,19,0,19,0,111.79530308401445,,,,,,,,,111.77934320899658,111.79530308401445,7.12500186637044e-05,112.781240042008,20,1,0.2,0.7,0.5,112.78173187503126,112.79624645900913,112.79624645900913,112.79624645900913,112.79624645900913,113.24688350001816,right,0.44334629096556455,None,right,0.44334629096556455,0.5,1,113.26577212504344,113.27351883403026,113.27351883403026,113.27351883403026,113.27351883403026,115.24935774999904,NA,NA,115.24960250000004,115.24966075003613,None,115.24975345900748,115.26116262504365,116.24949637503596,116.24432816699846,112.79624645900913,,,,,,,,,,,076752,001,2025-08-13_16h20.41.907,regret_experiment,2024.2.4,None,1,0.2,0.7,0.5,2025-08-13 16h20.48.788582 -0700,
20,0,20,up,0.2676555839716457,None,None,,,20,0,20,0,116.24949637503596,,,,,,,,,116.24459900002694,116.24949637503596,-0.00019650004105642438,117.23398800002178,21,1,0.2,0.7,0.5,117.23426937503973,117.24530987499747,117.24530987499747,117.24530987499747,117.24530987499747,117.51785433402983,up,0.2676555839716457,None,up,0.2676555839716457,0.7,1,117.53597641701344,117.54484187503112,117.54484187503112,117.54484187503112,117.54484187503112,119.52843875001417,NA,NA,119.52870445902226,119.52875662501901,None,119.52883858402492,119.54519750003237,120.53470741701312,120.52897266700165,117.24530987499747,,,,,,,,,,,076752,001,2025-08-13_16h20.41.907,regret_experiment,2024.2.4,None,1,0.2,0.7,0.5,2025-08-13 16h20.48.788582 -0700,
21,0,21,left,0.5182919159997255,None,None,,,21,0,21,0,120.53470741701312,,,,,,,,,120.5293669590028,120.53470741701312,0.000588166993111372,121.5288885839982,22,1,0.2,0.7,0.5,121.52912800002377,121.5449135840172,121.5449135840172,121.5449135840172,121.5449135840172,122.07938125001965,left,0.5182919159997255,None,left,0.5182919159997255,0.2,1,122.09769887500443,122.10674104199279,122.10674104199279,122.10674104199279,122.10674104199279,124.09485966700595,NA,NA,124.09515808400465,124.09521208400838,None,124.09529450000264,124.11089350003749,125.10068987502018,125.09475270903204,121.5449135840172,,,,,,,,,,,076752,001,2025-08-13_16h20.41.907,regret_experiment,2024.2.4,None,1,0.2,0.7,0.5,2025-08-13 16h20.48.788582 -0700,
22,0,22,up,0.5782797080464661,None,2,1.4151764590060338,None,22,0,22,0,125.10068987502018,,,,,,,,,125.09511975001078,125.10068987502018,-0.00012137502199038863,126.09506833401974,23,1,0.2,0.7,0.5,126.09531225002138,126.10167500004172,126.10167500004172,126.10167500004172,126.10167500004172,126.69716129201697,up,0.5782797080464661,None,up,0.5782797080464661,0.7,0,126.71695995901246,126.72523829201236,126.72523829201236,126.72523829201236,126.72523829201236,128.6999418340274,2,1.4151764590060338,128.7132045420003,130.13681237504352,2,130.13694912503706,130.14570891699987,131.1447254170198,131.12940045900177,126.10167500004172,128.7199429590255,128.7199429590255,128.7199429590255,128.7199429590255,128.7199429590255,1.4151764590060338,None,,,,076752,001,2025-08-13_16h20.41.907,regret_experiment,2024.2.4,None,1,0.2,0.7,0.5,2025-08-13 16h20.48.788582 -0700,
23,0,23,right,2.0700128749595024,None,None,,,23,0,23,0,131.1447254170198,,,,,,,,,131.1298982500448,131.1447254170198,0.007919957977719605,132.12902283400763,24,1,0.2,0.7,0.5,132.1292793340399,132.14535562501987,132.14535562501987,132.14535562501987,132.14535562501987,134.22947637503967,right,2.0700128749595024,None,right,2.0700128749595024,0.5,1,134.24721512501128,134.25436154199997,134.25436154199997,134.25436154199997,134.25436154199997,136.23484758404084,NA,NA,136.2351432919968,136.23519616702106,None,136.23527649999596,136.24444620904978,137.23412058403483,137.22818508400815,132.14535562501987,,,,,,,,,,,076752,001,2025-08-13_16h20.41.907,regret_experiment,2024.2.4,None,1,0.2,0.7,0.5,2025-08-13 16h20.48.788582 -0700,
24,0,24,up,0.3219564160099253,None,2,0.44775887503055856,None,24,0,24,0,137.23412058403483,,,,,,,,,137.22854954202194,137.23412058403483,0.009285708947572857,138.2289482090273,25,1,0.2,0.7,0.5,138.22919945901958,138.24536858400097,138.24536858400097,138.24536858400097,138.24536858400097,138.5798338750028,up,0.3219564160099253,None,up,0.3219564160099253,0.7,0,138.59956716699526,138.60730433400022,138.60730433400022,138.60730433400022,138.60730433400022,140.59478258399758,2,0.44775887503055856,140.60604133404559,141.06812750000972,2,141.06823520903708,141.07639254204696,142.06873091700254,142.06168587499997,138.24536858400097,140.61478829203406,140.61478829203406,140.61478829203406,140.61478829203406,140.61478829203406,0.44775887503055856,None,,,,076752,001,2025-08-13_16h20.41.907,regret_experiment,2024.2.4,None,1,0.2,0.7,0.5,2025-08-13 16h20.48.788582 -0700,
25,0,25,left,0.31254591699689627,None,2,0.9679659589892253,None,25,0,25,0,142.06873091700254,,,,,,,,,142.06242333404953,142.06873091700254,0.0005778329796157777,143.06224608403863,26,1,0.2,0.7,0.5,143.06249833403854,143.07872074999614,143.07872074999614,143.07872074999614,143.07872074999614,143.39643012499437,left,0.31254591699689627,None,left,0.31254591699689627,0.2,0,143.4157965000486,143.4234067920479,143.4234067920479,143.4234067920479,143.4234067920479,145.3988077500253,2,0.9679659589892253,145.4096408750047,146.3953484170488,2,146.39547425002092,146.40330062503926,147.40064679202624,147.39507445902564,143.07872074999614,145.41554904199438,145.41554904199438,145.41554904199438,145.41554904199438,145.41554904199438,0.9679659589892253,None,,,,076752,001,2025-08-13_16h20.41.907,regret_experiment,2024.2.4,None,1,0.2,0.7,0.5,2025-08-13 16h20.48.788582 -0700,
26,0,26,up,0.43658129102550447,None,None,,,26,0,26,0,147.40064679202624,,,,,,,,,147.39544887503143,147.40064679202624,3.50830378010869e-05,148.39568520901958,27,1,0.2,0.7,0.5,148.39599708403694,148.40212270902703,148.40212270902703,148.40212270902703,148.40212270902703,148.84570662502665,up,0.43658129102550447,None,up,0.43658129102550447,0.7,1,148.86415450001368,148.87138495902764,148.87138495902764,148.87138495902764,148.87138495902764,150.84984666702803,NA,NA,150.85014466702705,150.85020191699732,None,150.85027579200687,150.86185816704528,151.86201437504496,151.84561162500177,148.40212270902703,,,,,,,,,,,076752,001,2025-08-13_16h20.41.907,regret_experiment,2024.2.4,None,1,0.2,0.7,0.5,2025-08-13 16h20.48.788582 -0700,
27,0,27,right,0.7861016250099055,None,2,0.9086163750034757,None,27,0,27,0,151.86201437504496,,,,,,,,,151.8460150420433,151.86201437504496,0.011811957985628396,152.84508437500335,28,1,0.2,0.7,0.5,152.845318125037,152.8610441670171,152.8610441670171,152.8610441670171,152.8610441670171,153.66321299999254,right,0.7861016250099055,None,right,0.7861016250099055,0.5,0,153.68293595901923,153.69073683401803,153.69073683401803,153.69073683401803,153.69073683401803,155.67855816701194,2,0.9086163750034757,155.6895933750202,156.61342329200124,2,156.61353962501744,156.62809370900504,157.61739287502132,157.61147716699634,152.8610441670171,155.6980032499996,155.6980032499996,155.6980032499996,155.6980032499996,155.6980032499996,0.9086163750034757,None,,,,076752,001,2025-08-13_16h20.41.907,regret_experiment,2024.2.4,None,1,0.2,0.7,0.5,2025-08-13 16h20.48.788582 -0700,
28,0,28,up,0.8349829170037992,None,2,0.501954208011739,None,28,0,28,0,157.61739287502132,,,,,,,,,157.6118548340164,157.61739287502132,0.003934124950319529,158.6006800000323,29,1,0.2,0.7,0.5,158.60103512502974,158.61126170901116,158.61126170901116,158.61126170901116,158.61126170901116,159.46348487504292,up,0.8349829170037992,None,up,0.8349829170037992,0.7,0,159.48437054204987,159.491394709039,159.491394709039,159.491394709039,159.491394709039,161.4647162920446,2,0.501954208011739,161.47373883402906,161.98517654201714,2,161.98528112500207,161.9936614590115,162.9840676250169,162.97818075004034,158.61126170901116,161.48058962501818,161.48058962501818,161.48058962501818,161.48058962501818,161.48058962501818,0.501954208011739,None,,,,076752,001,2025-08-13_16h20.41.907,regret_experiment,2024.2.4,None,1,0.2,0.7,0.5,2025-08-13 16h20.48.788582 -0700,
29,0,29,left,0.9670679999981076,None,2,0.5535419170046225,None,29,0,29,0,162.9840676250169,,,,,,,,,162.97853504202794,162.9840676250169,0.009426250006072223,163.97827100002905,30,1,0.2,0.7,0.5,163.9785078749992,163.98391333402833,163.98391333402833,163.98391333402833,163.98391333402833,164.9631776669994,left,0.9670679999981076,None,left,0.9670679999981076,0.2,0,164.9827217500424,164.98930791701423,164.98930791701423,164.98930791701423,164.98930791701423,166.97830583399627,2,0.5535419170046225,166.99006875004852,167.55300929199439,2,167.55314104200806,167.56152379204286,168.5507654590183,168.54490333399735,163.98391333402833,166.9975636670133,166.9975636670133,166.9975636670133,166.9975636670133,166.9975636670133,0.5535419170046225,None,,,,076752,001,2025-08-13_16h20.41.907,regret_experiment,2024.2.4,None,1,0.2,0.7,0.5,2025-08-13 16h20.48.788582 -0700,
30,0,30,up,0.8976820830139332,None,None,,,30,0,30,0,168.5507654590183,,,,,,,,,168.54532408399973,168.5507654590183,0.008252749976236373,169.53414495900506,31,1,0.2,0.7,0.5,169.53439916699426,169.54935520904837,169.54935520904837,169.54935520904837,169.54935520904837,170.46340312500251,up,0.8976820830139332,None,up,0.8976820830139332,0.7,1,170.48246916703647,170.49022933404194,170.49022933404194,170.49022933404194,170.49022933404194,172.47860416700132,NA,NA,172.47901866701432,172.47907366702566,None,172.47915037500206,172.49518212501425,173.49484395899344,173.47890945902327,169.5441397500108,,,,,,,,,,,076752,001,2025-08-13_16h20.41.907,regret_experiment,2024.2.4,None,1,0.2,0.7,0.5,2025-08-13 16h20.48.788582 -0700,
31,0,31,right,0.7449464999954216,None,None,,,31,0,31,0,173.49484395899344,,,,,,,,,173.47927054204047,173.49484395899344,0.00017562502762302756,174.4787995420047,32,1,0.2,0.7,0.5,174.4790375000448,174.49424033402465,174.49424033402465,174.49424033402465,174.49424033402465,175.24635979201412,right,0.7449464999954216,None,right,0.7449464999954216,0.5,0,175.2656624999945,175.27264804200968,175.27264804200968,175.27264804200968,175.27264804200968,177.26199795899447,NA,NA,177.26231466699392,177.2623695420334,None,177.26244983403012,177.27861837501405,178.27861395903165,178.26235591701698,174.49424033402465,,,,,,,,,,,076752,001,2025-08-13_16h20.41.907,regret_experiment,2024.2.4,None,1,0.2,0.7,0.5,2025-08-13 16h20.48.788582 -0700,
32,0,32,right,0.8993549160077237,None,None,,,32,0,32,0,178.27861395903165,,,,,,,,,178.2627496670466,178.27861395903165,0.00035275000846013427,179.26156641700072,33,1,0.2,0.7,0.5,179.2618081670371,179.26754908403382,179.26754908403382,179.26754908403382,179.26754908403382,180.1798700420186,right,0.8993549160077237,None,right,0.8993549160077237,0.5,0,180.1994199170149,180.25776854204014,180.25776854204014,180.25776854204014,180.25776854204014,182.18314429203747,NA,NA,182.18344104202697,182.18349495902658,None,182.18357529200148,182.1954607500229,183.19525824999437,183.17891350004356,179.26754908403382,,,,,,,,,,,076752,001,2025-08-13_16h20.41.907,regret_experiment,2024.2.4,None,1,0.2,0.7,0.5,2025-08-13 16h20.48.788582 -0700,
33,0,33,left,0.5411396250128746,None,None,,,33,0,33,0,183.19525824999437,,,,,,,,,183.17932575003942,183.19525824999437,0.011762582988012582,184.17911458399612,34,1,0.2,0.7,0.5,184.17937825003173,184.1946502920473,184.1946502920473,184.1946502920473,184.1946502920473,184.74591308401432,left,0.5411396250128746,None,left,0.5411396250128746,0.2,0,184.76656095904764,184.7743903750088,184.7743903750088,184.7743903750088,184.7743903750088,186.7519879169995,NA,NA,186.75231783400523,186.7523712500115,None,186.75245833402732,186.76127200003248,187.76158195902826,187.7457536670263,184.1946502920473,,,,,,,,,,,076752,001,2025-08-13_16h20.41.907,regret_experiment,2024.2.4,None,1,0.2,0.7,0.5,2025-08-13 16h20.48.788582 -0700,
34,0,34,up,0.27800849999766797,None,None,,,34,0,34,0,187.76158195902826,,,,,,,,,187.74613833404146,187.76158195902826,0.009221332962624729,188.74558433401398,35,1,0.2,0.7,0.5,188.74585420900257,188.76153945899568,188.76153945899568,188.76153945899568,188.76153945899568,189.04591912502656,up,0.27800849999766797,None,up,0.27800849999766797,0.7,1,189.06487812503474,189.07251383404946,189.07251383404946,189.07251383404946,189.07251383404946,191.062005417014,NA,NA,191.06230754201533,191.06237145903287,None,191.06246237503365,191.07797737501096,192.07760104199406,192.06259129202226,188.76153945899568,,,,,,,,,,,076752,001,2025-08-13_16h20.41.907,regret_experiment,2024.2.4,None,1,0.2,0.7,0.5,2025-08-13 16h20.48.788582 -0700,
35,0,35,right,0.2847654999932274,None,None,,,35,0,35,0,192.07760104199406,,,,,,,,,192.063032459002,192.07760104199406,0.0006313750054687262,193.06114325003,36,1,0.2,0.7,0.5,193.06138299999293,193.06657729204744,193.06657729204744,193.06657729204744,193.06657729204744,193.35360287502408,right,0.2847654999932274,None,right,0.2847654999932274,0.5,1,193.37122587504564,193.37920091702836,193.37920091702836,193.37920091702836,193.37920091702836,195.36181604204467,NA,NA,195.36210304201813,195.3621646669926,None,195.36224358400796,195.37771625001915,196.37818804202834,196.3619769590441,193.06657729204744,,,,,,,,,,,076752,001,2025-08-13_16h20.41.907,regret_experiment,2024.2.4,None,1,0.2,0.7,0.5,2025-08-13 16h20.48.788582 -0700,
36,0,36,up,0.55048233398702,None,None,,,36,0,36,0,196.37818804202834,,,,,,,,,196.3623542500427,196.37818804202834,0.00016533304005861282,197.36143775004894,37,1,0.2,0.7,0.5,197.36192704201676,197.3686024590279,197.3686024590279,197.3686024590279,197.3686024590279,197.92933866701787,up,0.55048233398702,None,up,0.55048233398702,0.7,0,197.94874329201411,197.9558952920488,197.9558952920488,197.9558952920488,197.9558952920488,199.93305033404613,NA,NA,199.9333134170156,199.93337054201402,None,199.93344295903808,199.94530854199547,200.94511841703206,200.9284859590116,197.3686024590279,,,,,,,,,,,076752,001,2025-08-13_16h20.41.907,regret_experiment,2024.2.4,None,1,0.2,0.7,0.5,2025-08-13 16h20.48.788582 -0700,
37,0,37,up,0.6558262499747798,None,None,,,37,0,37,0,200.94511841703206,,,,,,,,,200.92890362499747,200.94511841703206,0.0117507089744322,201.92872412502766,38,1,0.2,0.7,0.5,201.92896904202644,201.93480445904424,201.93480445904424,201.93480445904424,201.93480445904424,202.59672204201343,up,0.6558262499747798,None,up,0.6558262499747798,0.7,0,202.61638383404352,202.6243174590054,202.6243174590054,202.6243174590054,202.6243174590054,204.61213191703428,NA,NA,204.6125832090038,204.61265429202467,None,204.6127335000201,204.617480084009,205.62791562499478,205.61224899999797,201.93480445904424,,,,,,,,,,,076752,001,2025-08-13_16h20.41.907,regret_experiment,2024.2.4,None,1,0.2,0.7,0.5,2025-08-13 16h20.48.788582 -0700,
38,0,38,left,0.558810957998503,None,None,,,38,0,38,0,205.62791562499478,,,,,,,,,205.61260320903966,205.62791562499478,-7.816700963303447e-05,206.6114613750251,39,1,0.2,0.7,0.5,206.6116862090421,206.61675600003218,206.61675600003218,206.61675600003218,206.61675600003218,207.17926458403235,left,0.558810957998503,None,left,0.558810957998503,0.2,1,207.1978060840047,207.2072972500464,207.2072972500464,207.2072972500464,207.2072972500464,209.19552391703473,NA,NA,209.19581712502986,209.19586912501836,None,209.19594408402918,209.21127062500454,210.2018574590329,210.19506837503286,206.61675600003218,,,,,,,,,,,076752,001,2025-08-13_16h20.41.907,regret_experiment,2024.2.4,None,1,0.2,0.7,0.5,2025-08-13 16h20.48.788582 -0700,
39,0,39,up,0.7014427499962039,None,None,,,39,0,39,0,210.2018574590329,,,,,,,,,210.1955280000111,210.2018574590329,-0.000359416997525841,211.19512150000082,40,1,0.2,0.7,0.5,211.19539962499402,211.2113825000124,211.2113825000124,211.2113825000124,211.2113825000124,211.92857920902316,up,0.7014427499962039,None,up,0.7014427499962039,0.7,1,211.94846091704676,211.95588791702176,211.95588791702176,211.95588791702176,211.95588791702176,213.92882783402456,NA,NA,213.92913237499306,213.92918562504929,None,213.9292617920437,213.94523495901376,214.9347804170102,214.92858100001467,211.2113825000124,,,,,,,,,,,076752,001,2025-08-13_16h20.41.907,regret_experiment,2024.2.4,None,1,0.2,0.7,0.5,2025-08-13 16h20.48.788582 -0700,
40,0,40,right,0.6280321250087582,None,None,,,40,0,40,0,214.9347804170102,,,,,,,,,214.92892750003375,214.9347804170102,-0.0002824160037562251,215.92837116704322,41,1,0.2,0.7,0.5,215.92861254204763,215.93414541700622,215.93414541700622,215.93414541700622,215.93414541700622,216.5673847500002,right,0.6280321250087582,None,right,0.6280321250087582,0.5,1,216.57714500004658,216.5843533340376,216.5843533340376,216.5843533340376,216.5843533340376,218.57810650003375,NA,NA,218.57841937500052,218.57847858400783,None,218.5785542090307,218.58341133402428,219.57795333402464,219.56653300003381,215.93414541700622,,,,,,,,,,,076752,001,2025-08-13_16h20.41.907,regret_experiment,2024.2.4,None,1,0.2,0.7,0.5,2025-08-13 16h20.48.788582 -0700,
41,0,41,up,0.6606592090101913,None,None,,,41,0,41,0,219.57795333402464,,,,,,,,,219.5669232920045,219.57795333402464,-0.0005235840217210352,220.56232566700783,42,1,0.2,0.7,0.5,220.5625628750422,220.57870704203378,220.57870704203378,220.57870704203378,220.57870704203378,221.24556566704996,up,0.6606592090101913,None,up,0.6606592090101913,0.7,0,221.26557120901998,221.2729685420054,221.2729685420054,221.2729685420054,221.2729685420054,223.26151854201453,NA,NA,223.26180879201274,223.26186374999816,None,223.26195154199377,223.27830879203975,224.26732762501342,224.26150550000602,220.57870704203378,,,,,,,,,,,076752,001,2025-08-13_16h20.41.907,regret_experiment,2024.2.4,None,1,0.2,0.7,0.5,2025-08-13 16h20.48.788582 -0700,
42,0,42,left,0.7141766670392826,None,None,,,42,0,42,0,224.26732762501342,,,,,,,,,224.26192104199436,224.26732762501342,2.5833025574684143e-05,225.26150533399777,43,1,0.2,0.7,0.5,225.2618297089939,225.26899208402028,225.26899208402028,225.26899208402028,225.26899208402028,225.98555041704094,left,0.7141766670392826,None,left,0.7141766670392826,0.2,0,226.00525375001598,226.01267891703174,226.01267891703174,226.01267891703174,226.01267891703174,227.99544762499863,NA,NA,227.99577312503243,227.99583120900206,None,227.99590550002176,228.01197608403163,229.0011852500029,228.99498154199682,225.26899208402028,,,,,,,,,,,076752,001,2025-08-13_16h20.41.907,regret_experiment,2024.2.4,None,1,0.2,0.7,0.5,2025-08-13 16h20.48.788582 -0700,
43,0,43,right,0.7010321670095436,None,None,,,43,0,43,0,229.0011852500029,,,,,,,,,228.99545775004663,229.0011852500029,-0.00039474997902289033,229.9956777089974,44,1,0.2,0.7,0.5,229.99596962501528,230.0113620000193,230.0113620000193,230.0113620000193,230.0113620000193,230.7293830840499,right,0.7010321670095436,None,right,0.7010321670095436,0.5,1,230.74735504202545,230.7544564169948,230.7544564169948,230.7544564169948,230.7544564169948,232.73377687501488,NA,NA,232.7342893750174,232.734374459018,None,232.73445899999933,232.74453925003763,233.74532720900606,233.7290899590007,230.0113620000193,,,,,,,,,,,076752,001,2025-08-13_16h20.41.907,regret_experiment,2024.2.4,None,1,0.2,0.7,0.5,2025-08-13 16h20.48.788582 -0700,
44,0,44,up,0.5848469579941593,None,None,,,44,0,44,0,233.74532720900606,,,,,,,,,233.72947979200399,233.74532720900606,0.010950417025014758,234.72856162500102,45,1,0.2,0.7,0.5,234.72880558401812,234.7344687920413,234.7344687920413,234.7344687920413,234.7344687920413,235.32924470904982,up,0.5848469579941593,None,up,0.5848469579941593,0.7,1,235.3470335000311,235.35518354200758,235.35518354200758,235.35518354200758,235.35518354200758,237.33288795902627,NA,NA,237.33317791699665,237.33323258400196,None,237.33330995903816,237.34438300004695,238.33419062499888,238.32818150002277,234.7344687920413,,,,,,,,,,,076752,001,2025-08-13_16h20.41.907,regret_experiment,2024.2.4,None,1,0.2,0.7,0.5,2025-08-13 16h20.48.788582 -0700,
45,0,45,left,0.3988035840447992,None,None,,,45,0,45,0,238.33419062499888,,,,,,,,,238.32858020899585,238.33419062499888,0.0009925420163199306,239.32873845903669,46,1,0.2,0.7,0.5,239.32906770904083,239.33575762499822,239.33575762499822,239.33575762499822,239.33575762499822,239.74482341704424,left,0.3988035840447992,None,left,0.3988035840447992,0.2,0,239.76571704202797,239.7727620000369,239.7727620000369,239.7727620000369,239.7727620000369,241.74962329200935,NA,NA,241.74987100000726,241.74991587502882,None,241.74998141702963,241.76119966700207,242.75232512503862,242.74531104200287,239.33575762499822,,,,,,,,,,,076752,001,2025-08-13_16h20.41.907,regret_experiment,2024.2.4,None,1,0.2,0.7,0.5,2025-08-13 16h20.48.788582 -0700,
46,0,46,up,0.5623313749674708,None,None,,,46,0,46,0,242.75232512503862,,,,,,,,,242.74574095901335,242.75232512503862,0.0024249160196632147,243.7449628750328,47,1,0.2,0.7,0.5,243.74521037499653,243.7510483750375,243.7510483750375,243.7510483750375,243.7510483750375,244.31785320903873,up,0.5623313749674708,None,up,0.5623313749674708,0.7,1,244.33563433401287,244.34408549999353,244.34408549999353,244.34408549999353,244.34408549999353,246.32873266702518,NA,NA,246.32901679200586,246.32908516703174,None,246.3291620000382,246.34527754201554,247.3343587500276,247.32821475004312,243.7510483750375,,,,,,,,,,,076752,001,2025-08-13_16h20.41.907,regret_experiment,2024.2.4,None,1,0.2,0.7,0.5,2025-08-13 16h20.48.788582 -0700,
47,0,47,right,0.3754480829811655,None,None,,,47,0,47,0,247.3343587500276,,,,,,,,,247.32857795903692,247.3343587500276,-0.0005305829690769315,248.3188614170067,48,1,0.2,0.7,0.5,248.31913145899307,248.32793179200962,248.32793179200962,248.32793179200962,248.32793179200962,248.713139917003,right,0.3754480829811655,None,right,0.3754480829811655,0.5,1,248.73078458401142,248.73795754200546,248.73795754200546,248.73795754200546,248.73795754200546,250.71689475001767,NA,NA,250.7171832920285,250.71723570901668,None,250.71731045900378,250.7286689170287,251.72787695901934,251.7119007500005,248.32793179200962,,,,,,,,,,,076752,001,2025-08-13_16h20.41.907,regret_experiment,2024.2.4,None,1,0.2,0.7,0.5,2025-08-13 16h20.48.788582 -0700,
48,0,48,up,0.6288100410019979,None,None,,,48,0,48,0,251.72787695901934,,,,,,,,,251.71226266701706,251.72787695901934,0.010645041998941451,252.7115473340382,49,1,0.2,0.7,0.5,252.71183341700817,252.71704970899737,252.71704970899737,252.71704970899737,252.71704970899737,253.3504035420483,up,0.6288100410019979,None,up,0.6288100410019979,0.7,0,253.37056895904243,253.37823929201113,253.37823929201113,253.37823929201113,253.37823929201113,255.3620360000059,NA,NA,255.36232362501323,255.3623770000413,None,255.36245687503833,255.37854599999264,,256.36537962500006,252.71704970899737,,,,,,,,,,,076752,001,2025-08-13_16h20.41.907,regret_experiment,2024.2.4,None,1,0.2,0.7,0.5,2025-08-13 16h20.48.788582 -0700,
49,0,49,left,1.029497833980713,None,None,,,49,0,49,0,256.3775629590382,,,,,,,,,256.36570750002284,256.3775629590382,0.003299625008367002,257.3619153340114,50,1,0.2,0.7,0.5,257.36220516700996,257.3780648340471,257.3780648340471,257.3780648340471,257.3780648340471,258.4133243749966,left,1.029497833980713,None,left,1.029497833980713,0.2,0,258.43271008401643,258.4405418340466,258.4405418340466,258.4405418340466,258.4405418340466,260.41651537502185,NA,NA,260.4169333750033,260.4170028340304,None,260.41711845900863,260.42805854202015,261.41752066701883,261.4116216250113,257.3780648340471,,,,,,,,,,,076752,001,2025-08-13_16h20.41.907,regret_experiment,2024.2.4,None,1,0.2,0.7,0.5,2025-08-13 16h20.48.788582 -0700,
50,0,50,right,0.3825333340209909,None,None,,,50,0,50,0,261.41752066701883,,,,,,,,,261.41206633404363,261.41752066701883,0.00048391695600003004,262.4115398339927,51,1,0.2,0.7,0.5,262.41179850004846,262.4172432500054,262.4172432500054,262.4172432500054,262.4172432500054,262.801789249992,right,0.3825333340209909,None,right,0.3825333340209909,0.5,0,262.82034183404176,262.82791225000983,262.82791225000983,262.82791225000983,262.82791225000983,264.8109406250296,NA,NA,264.81132400000934,264.81137720902916,None,264.81145249999827,264.816399000003,,265.8119675840135,262.4172432500054,,,,,,,,,,,076752,001,2025-08-13_16h20.41.907,regret_experiment,2024.2.4,None,1,0.2,0.7,0.5,2025-08-13 16h20.48.788582 -0700,
51,0,51,up,0.38263462495524436,None,None,,,51,0,51,0,265.82799354201416,,,,,,,,,265.81235287501477,265.82799354201416,0.0009543339838273823,266.8117546670255,52,1,0.2,0.7,0.5,266.8121121250442,266.81767987500643,266.81767987500643,266.81767987500643,266.81767987500643,267.2027387090493,up,0.38263462495524436,None,up,0.38263462495524436,0.7,1,267.22153441701084,267.2287690840312,267.2287690840312,267.2287690840312,267.2287690840312,269.21159779204754,NA,NA,269.2118934169994,269.2119459170499,None,269.21202104201075,269.22784775000764,270.22816575004254,270.21188204200007,266.81767987500643,,,,,,,,,,,076752,001,2025-08-13_16h20.41.907,regret_experiment,2024.2.4,None,1,0.2,0.7,0.5,2025-08-13 16h20.48.788582 -0700,
52,0,52,right,0.2535138330422342,None,None,,,52,0,52,0,270.22816575004254,,,,,,,,,270.2122414589976,270.22816575004254,0.00027312501333653927,271.21173591702245,53,1,0.2,0.7,0.5,271.212013750046,271.2171417500358,271.2171417500358,271.2171417500358,271.2171417500358,271.4792910840479,right,0.2535138330422342,None,right,0.2535138330422342,0.5,1,271.4974545420264,271.504470584041,271.504470584041,271.504470584041,271.504470584041,273.4830102500273,NA,NA,273.4833190840436,273.48337462503696,None,273.4834580839961,273.49477074999595,274.49541016703006,274.478922875016,271.2171417500358,,,,,,,,,,,076752,001,2025-08-13_16h20.41.907,regret_experiment,2024.2.4,None,1,0.2,0.7,0.5,2025-08-13 16h20.48.788582 -0700,
53,0,53,up,1.7782401249860413,None,None,,,53,0,53,0,274.49541016703006,,,,,,,,,274.4793065840495,274.49541016703006,0.012077874969691038,275.48237404203974,54,1,0.2,0.7,0.5,275.48256683401996,275.49407037504716,275.49407037504716,275.49407037504716,275.49407037504716,277.27934462501435,up,1.7782401249860413,None,up,1.7782401249860413,0.7,0,277.30166212504264,277.31001037504757,277.31001037504757,277.31001037504757,277.31001037504757,279.2839039170067,NA,NA,279.2844788749935,279.2845617920393,None,279.28465379204135,279.2950512500247,280.29527333402075,280.2789635840454,275.49407037504716,,,,,,,,,,,076752,001,2025-08-13_16h20.41.907,regret_experiment,2024.2.4,None,1,0.2,0.7,0.5,2025-08-13 16h20.48.788582 -0700,
54,0,54,up,0.2814205419854261,None,None,,,54,0,54,0,280.29527333402075,,,,,,,,,280.27935308404267,280.29527333402075,0.010707708017434925,281.2790387500427,55,1,0.2,0.7,0.5,281.2792792500113,281.2953275000327,281.2953275000327,281.2953275000327,281.2953275000327,281.5799736250192,up,0.2814205419854261,None,up,0.2814205419854261,0.7,1,281.5980497090495,281.6053917920217,281.6053917920217,281.6053917920217,281.6053917920217,283.5954040840152,NA,NA,283.5957287090132,283.59578162501566,None,283.595872875012,283.6120044999989,284.6023075840203,284.59537629201077,281.2953275000327,,,,,,,,,,,076752,001,2025-08-13_16h20.41.907,regret_experiment,2024.2.4,None,1,0.2,0.7,0.5,2025-08-13 16h20.48.788582 -0700,
55,0,55,left,0.44275883299997076,None,None,,,55,0,55,0,284.6023075840203,,,,,,,,,284.59584708401235,284.6023075840203,3.0292023438960314e-05,285.5954958749935,56,1,0.2,0.7,0.5,285.59571704204427,285.6118725420092,285.6118725420092,285.6118725420092,285.6118725420092,286.06212958402466,left,0.44275883299997076,None,left,0.44275883299997076,0.2,1,286.0801673340029,286.0877386670327,286.0877386670327,286.0877386670327,286.0877386670327,288.07871162501397,NA,NA,288.078958542028,288.0790175840375,None,288.0790993749979,288.09533266699873,,289.08189550001407,285.6118725420092,,,,,,,,,,,076752,001,2025-08-13_16h20.41.907,regret_experiment,2024.2.4,None,1,0.2,0.7,0.5,2025-08-13 16h20.48.788582 -0700,
56,0,56,left,0.272050583967939,None,None,,,56,0,56,0,289.0939442500239,,,,,,,,,289.08226129203103,289.0939442500239,0.003213166957721114,290.0788225000142,57,1,0.2,0.7,0.5,290.0790647920221,290.0953010840458,290.0953010840458,290.0953010840458,290.0953010840458,290.3692051669932,left,0.272050583967939,None,left,0.272050583967939,0.2,0,290.3880718339933,290.39590212504845,290.39590212504845,290.39590212504845,290.39590212504845,292.3780496250256,NA,NA,292.3784866250353,292.37854108400643,None,292.3786188749946,292.38343725004233,293.3850492500351,293.3782200840069,290.0953010840458,,,,,,,,,,,076752,001,2025-08-13_16h20.41.907,regret_experiment,2024.2.4,None,1,0.2,0.7,0.5,2025-08-13 16h20.48.788582 -0700,
57,0,57,up,0.30203070904826745,None,None,,,57,0,57,0,293.3850492500351,,,,,,,,,293.37896145903505,293.3850492500351,0.00042145902989432216,294.37922629201785,58,1,0.2,0.7,0.5,294.379548084049,294.3940081670298,294.3940081670298,294.3940081670298,294.3940081670298,294.7128559999983,up,0.30203070904826745,None,up,0.30203070904826745,0.7,1,294.73383462504717,294.7426048340276,294.7426048340276,294.7426048340276,294.7426048340276,296.7162209590315,NA,NA,296.7165885840077,296.7166394999949,None,296.71671183401486,296.72776187502313,297.7285480000428,297.7124325000332,294.3940081670298,,,,,,,,,,,076752,001,2025-08-13_16h20.41.907,regret_experiment,2024.2.4,None,1,0.2,0.7,0.5,2025-08-13 16h20.48.788582 -0700,
58,0,58,right,0.42294200003379956,None,None,,,58,0,58,0,297.7285480000428,,,,,,,,,297.71279420901556,297.7285480000428,0.011915249982848763,298.7117192920414,59,1,0.2,0.7,0.5,298.7119650840177,298.72780691704247,298.72780691704247,298.72780691704247,298.72780691704247,299.16240112500964,right,0.42294200003379956,None,right,0.42294200003379956,0.5,0,299.18197012500605,299.1892937920056,299.1892937920056,299.1892937920056,299.1892937920056,301.1680391250411,NA,NA,301.1684913749923,301.1685516250436,None,301.168632542016,301.17801812500693,302.1675067920005,302.16197650000686,298.72780691704247,,,,,,,,,,,076752,001,2025-08-13_16h20.41.907,regret_experiment,2024.2.4,None,1,0.2,0.7,0.5,2025-08-13 16h20.48.788582 -0700,
59,0,59,up,0.5035302079631947,None,None,,,59,0,59,0,302.1675067920005,,,,,,,,,302.1624571250286,302.1675067920005,0.00947512499988079,303.16119750001235,60,1,0.2,0.7,0.5,303.16149758402025,303.16718462499557,303.16718462499557,303.16718462499557,303.16718462499557,303.6791198340361,up,0.5035302079631947,None,up,0.5035302079631947,0.7,1,303.6971318339929,303.70471041701967,303.70471041701967,303.70471041701967,303.70471041701967,305.6952650840394,NA,NA,305.6956010420108,305.6956697090063,None,305.69574650004506,305.7120271670283,306.73743516701506,306.6977072090376,303.16718462499557,,,,,,,,,,,076752,001,2025-08-13_16h20.41.907,regret_experiment,2024.2.4,None,1,0.2,0.7,0.5,2025-08-13 16h20.48.788582 -0700,
,,,,,,,,,,,,,,,,,,,,,,,,,,,,,,,,,,,,,,,,,,,,,,,,,,,,,,,,,,,,,,,,,,,N/A,306.72945287503535,306.73743516701506,,,,,,,,,,,,
