thisN,thisTrialN,thisRepN,key_resp_1.keys,key_resp_1.rt,key_resp_1.duration,regret_key.keys,regret_key.rt,regret_key.duration,trials.thisRepN,trials.thisTrialN,trials.thisN,trials.thisIndex,thisRow.t,notes,begin_exp.started,begin.started,advance_key.started,begin_exp.stopped,advance_key.keys,advance_key.rt,advance_key.duration,Fixation.started,fixcross.started,etRecord.started,Fixation.stopped,trial_num,participant_cond,prob_left,prob_up,prob_right,Choice.started,tree1_img.started,tree2_img.started,tree3_img.started,key_resp_1.started,Choice.stopped,trials.key_resp_1.keys,trials.key_resp_1.rt,trials.key_resp_1.duration,choice_key,choice_rt,choice_prob,points,Feedback.started,appleImage.started,tree1.started,tree2.started,tree3.started,Feedback.stopped,regret_rating,regret_rt,RegretRating.started,RegretRating.stopped,trials.regret_key.keys,ITI.started,blank_screen.started,blank_screen.stopped,ITI.stopped,fixcross.stopped,regret_scale.started,regret_key.started,rtree1.started,rtree2.started,rtree3.started,trials.regret_key.rt,trials.regret_key.duration,avg_regret,EndScreen.started,end_display.started,participant,session,date,expName,psychopyVersion,frameRate,participant_cond,prob_left,prob_up,prob_right,expStart,
,,,,,,,,,,,,,,,0.008821750001516193,0.024190374999307096,0.024190374999307096,3.142115583003033,space,3.083330916997511,None,,,,,,1,0.7,0.2,0.5,,,,,,,,,,,,,,,,,,,,,,,,,,,,,,,,,,,,,,,,088188,001,2025-08-12_15h16.09.295,regret_experiment,2024.2.4,None,1,0.7,0.2,0.5,2025-08-12 15h16.15.342337 -0700,
0,0,0,right,3.8691919170087203,None,None,,,0,0,0,0,3.700323582976125,,,,,,,,,3.1439029999892227,3.700323582976125,0.0017564170411787927,4.150031250028405,1,1,0.7,0.2,0.5,4.1502404580242,4.157199124980252,4.157199124980252,4.157199124980252,4.157199124980252,8.035096790990792,right,3.8691919170087203,None,right,3.8691919170087203,0.5,1,8.056780458020512,8.179462791013066,8.179462791013066,8.179462791013066,8.179462791013066,10.03812600002857,NA,NA,10.038362541003153,10.038414790993556,None,10.038488041027449,10.04986775002908,11.041794250020757,11.03482466598507,,,,,,,,,,,,088188,001,2025-08-12_15h16.09.295,regret_experiment,2024.2.4,None,1,0.7,0.2,0.5,2025-08-12 15h16.15.342337 -0700,
1,0,1,left,3.1431325000012293,None,None,,,1,0,1,0,11.041794250020757,,,,,,,,,11.035426416026894,11.041794250020757,0.0033899169648066163,12.034848541021347,2,1,0.7,0.2,0.5,12.035248375032097,12.042566290998366,12.042566290998366,12.042566290998366,12.042566290998366,15.191979333001655,left,3.1431325000012293,None,left,3.1431325000012293,0.7,1,15.211972500022966,15.222661832987797,15.222661832987797,15.222661832987797,15.222661832987797,17.20053425000515,NA,NA,17.201044625020586,17.20112062501721,None,17.20122500002617,17.206992708030157,18.20627795800101,18.200606582977343,12.042566290998366,,,,,,,,,,,088188,001,2025-08-12_15h16.09.295,regret_experiment,2024.2.4,None,1,0.7,0.2,0.5,2025-08-12 15h16.15.342337 -0700,
2,0,2,up,2.006503749988042,None,2,10.31906650000019,None,2,0,2,0,18.20627795800101,,,,,,,,,18.200970457983203,18.20627795800101,-0.00019295798847451806,19.190108666021843,3,1,0.7,0.2,0.5,19.190437707991805,19.348539958009496,19.348539958009496,19.348539958009496,19.348539958009496,21.359443166002166,up,2.006503749988042,None,up,2.006503749988042,0.2,0,21.382509333023336,21.390644582977984,21.390644582977984,21.390644582977984,21.390644582977984,23.367277375014964,2,10.31906650000019,23.37946316599846,33.709293041029014,2,33.709422625019215,33.73376658302732,,34.71768545801751,19.348539958009496,23.387599707988556,23.387599707988556,23.387599707988556,23.387599707988556,23.387599707988556,10.31906650000019,None,,,,088188,001,2025-08-12_15h16.09.295,regret_experiment,2024.2.4,None,1,0.7,0.2,0.5,2025-08-12 15h16.15.342337 -0700,
3,0,3,right,5.535237792006228,None,3,0.8992948749801144,None,3,0,3,0,34.72390354098752,,,,,,,,,34.71811237500515,34.72390354098752,0.008752957975957543,35.71753395802807,4,1,0.7,0.2,0.5,35.717846625018865,35.733645665983204,35.733645665983204,35.733645665983204,35.733645665983204,41.275412040995434,right,5.535237792006228,None,right,5.535237792006228,0.5,0,41.29642904101638,41.30391600000439,41.30391600000439,41.30391600000439,41.30391600000439,43.28400312497979,3,0.8992948749801144,43.29578633297933,44.207698500016704,3,44.20781741599785,44.21631270798389,45.20517683302751,45.20005037501687,,43.30278816598002,43.30278816598002,43.30278816598002,43.30278816598002,43.30278816598002,0.8992948749801144,None,,,,088188,001,2025-08-12_15h16.09.295,regret_experiment,2024.2.4,None,1,0.7,0.2,0.5,2025-08-12 15h16.15.342337 -0700,
4,0,4,left,2.180162958044093,None,None,,,4,0,4,0,45.20517683302751,,,,,,,,,45.200405750016216,45.20517683302751,0.008942832995671779,46.18962695798837,5,1,0.7,0.2,0.5,46.18988191598328,46.206424582982436,46.206424582982436,46.206424582982436,46.206424582982436,48.39106150000589,left,2.180162958044093,None,left,2.180162958044093,0.7,1,48.41029570798855,48.41862062498694,48.41862062498694,48.41862062498694,48.41862062498694,50.401265041029546,NA,NA,50.40183916600654,50.40193662501406,None,50.40203704102896,50.40849345800234,51.40734066598816,51.40095683297841,46.200514999974985,,,,,,,,,,,088188,001,2025-08-12_15h16.09.295,regret_experiment,2024.2.4,None,1,0.7,0.2,0.5,2025-08-12 15h16.15.342337 -0700,
5,0,5,up,3.4666240419610403,None,2,5.662267041974701,None,5,0,5,0,51.40734066598816,,,,,,,,,51.40137149998918,51.40734066598816,-0.000602708023507148,52.4008092500153,6,1,0.7,0.2,0.5,52.401068666018546,52.40700645803008,52.40700645803008,52.40700645803008,52.40700645803008,55.88554158300394,up,3.4666240419610403,None,up,3.4666240419610403,0.2,0,55.90580341598252,55.913697790994775,55.913697790994775,55.913697790994775,55.913697790994775,57.88980720797554,2,5.662267041974701,57.90134141599992,63.5742966660182,2,63.574399665987585,63.583070749999024,64.5742999999784,64.56748195801629,52.40700645803008,57.90845254098531,57.90845254098531,57.90845254098531,57.90845254098531,57.90845254098531,5.662267041974701,None,,,,088188,001,2025-08-12_15h16.09.295,regret_experiment,2024.2.4,None,1,0.7,0.2,0.5,2025-08-12 15h16.15.342337 -0700,
6,0,6,right,3.1382248330046423,None,None,,,6,0,6,0,64.5742999999784,,,,,,,,,64.56810579099692,64.5742999999784,-1.0999967344105244e-05,65.56855924997944,7,1,0.7,0.2,0.5,65.56903912499547,65.57600900001125,65.57600900001125,65.57600900001125,65.57600900001125,68.7194687500014,right,3.1382248330046423,None,right,3.1382248330046423,0.5,1,68.73901458299952,68.74609466601396,68.74609466601396,68.74609466601396,68.74609466601396,70.72482870798558,NA,NA,70.72522174997721,70.7252972080023,None,70.72537804098101,70.73318041599123,71.72468945803121,71.718246000004,65.57600900001125,,,,,,,,,,,088188,001,2025-08-12_15h16.09.295,regret_experiment,2024.2.4,None,1,0.7,0.2,0.5,2025-08-12 15h16.15.342337 -0700,
7,0,7,right,1.9023168329731561,None,None,,,7,0,7,0,71.72468945803121,,,,,,,,,71.71888358303113,71.72468945803121,-0.0006137499585747719,72.70815900003072,8,1,0.7,0.2,0.5,72.70866308303084,72.72412874997826,72.72412874997826,72.72412874997826,72.72412874997826,74.63604666601168,right,1.9023168329731561,None,right,1.9023168329731561,0.5,1,74.65388225001516,74.67319075000705,74.67319075000705,74.67319075000705,74.67319075000705,76.63895504100947,NA,NA,76.63925954099977,76.63931416597916,None,76.63939216599101,76.65043745801086,77.63972941599786,77.63419983303174,72.71663179103052,,,,,,,,,,,088188,001,2025-08-12_15h16.09.295,regret_experiment,2024.2.4,None,1,0.7,0.2,0.5,2025-08-12 15h16.15.342337 -0700,
8,0,8,right,0.5032908749999478,None,None,,,8,0,8,0,77.63972941599786,,,,,,,,,77.63467679102905,77.63972941599786,0.00042095902608707547,78.63534849998541,9,1,0.7,0.2,0.5,78.63586154102813,78.6435754999984,78.6435754999984,78.6435754999984,78.6435754999984,79.15172308299225,right,0.5032908749999478,None,right,0.5032908749999478,0.5,1,79.16991729103029,79.17737454100279,79.17737454100279,79.17737454100279,79.17737454100279,81.16797850001603,NA,NA,81.16841974999988,81.16848208301235,None,81.16858045797562,81.17438358301297,82.16724300000351,82.15750745800324,78.6435754999984,,,,,,,,,,,088188,001,2025-08-12_15h16.09.295,regret_experiment,2024.2.4,None,1,0.7,0.2,0.5,2025-08-12 15h16.15.342337 -0700,
9,0,9,right,0.7476929999538697,None,1,5.395939000009093,None,9,0,9,0,82.16724300000351,,,,,,,,,82.15792241599411,82.16724300000351,0.004029916017316282,83.15090054098982,10,1,0.7,0.2,0.5,83.15172625001287,83.16722862498136,83.16722862498136,83.16722862498136,83.16722862498136,83.91845337499399,right,0.7476929999538697,None,right,0.7476929999538697,0.5,0,83.9397199160303,83.9466487080208,83.9466487080208,83.9466487080208,83.9466487080208,85.9243193329894,1,5.395939000009093,85.93586995801888,91.34152058302425,1,91.34173216600902,91.35110308299772,92.34028058301192,92.33439029101282,83.15772995800944,85.94308629102306,85.94308629102306,85.94308629102306,85.94308629102306,85.94308629102306,5.395939000009093,None,,,,088188,001,2025-08-12_15h16.09.295,regret_experiment,2024.2.4,None,1,0.7,0.2,0.5,2025-08-12 15h16.15.342337 -0700,
10,0,10,left,1.597367917012889,None,None,,,10,0,10,0,92.34028058301192,,,,,,,,,92.3348001660197,92.34028058301192,0.008935040968935937,93.32483341603074,11,1,0.7,0.2,0.5,93.32509620802011,93.33382150001125,93.33382150001125,93.33382150001125,93.33382150001125,94.9357701659901,left,1.597367917012889,None,left,1.597367917012889,0.7,1,94.95548379101092,94.96296520798933,94.96296520798933,94.96296520798933,94.96296520798933,96.95127837499604,NA,NA,96.95182941597886,96.95192199997837,None,96.95205166598316,96.95858883298934,97.95706454099854,97.9509160000016,93.33382150001125,,,,,,,,,,,088188,001,2025-08-12_15h16.09.295,regret_experiment,2024.2.4,None,1,0.7,0.2,0.5,2025-08-12 15h16.15.342337 -0700,
11,0,11,left,0.7954414170235395,None,None,,,11,0,11,0,97.95706454099854,,,,,,,,,97.95136000000639,97.95706454099854,-0.0006245409604161978,98.94131441600621,12,1,0.7,0.2,0.5,98.94157812499907,98.95042133302195,98.95042133302195,98.95042133302195,98.95042133302195,99.75293800001964,left,0.7954414170235395,None,left,0.7954414170235395,0.7,1,99.77119887497975,99.779082166031,99.779082166031,99.779082166031,99.779082166031,101.75602329103276,NA,NA,101.75632116600173,101.75637304101838,None,101.75646658299956,101.76716345798923,102.76727458299138,102.75176462501986,98.95042133302195,,,,,,,,,,,088188,001,2025-08-12_15h16.09.295,regret_experiment,2024.2.4,None,1,0.7,0.2,0.5,2025-08-12 15h16.15.342337 -0700,
12,0,12,left,0.6373961670324206,None,None,,,12,0,12,0,102.76727458299138,,,,,,,,,102.75209537497722,102.76727458299138,0.010936249978840351,103.75080883299233,13,1,0.7,0.2,0.5,103.75109283300117,103.75663716602139,103.75663716602139,103.75663716602139,103.75663716602139,104.40228220802965,left,0.6373961670324206,None,left,0.6373961670324206,0.7,1,104.42051450000145,104.42858383298153,104.42858383298153,104.42858383298153,104.42858383298153,106.41780462500174,NA,NA,106.41811041597975,106.41816579102306,None,106.41823920799652,106.42352083302103,107.42561600002227,107.41848670801846,103.75663716602139,,,,,,,,,,,088188,001,2025-08-12_15h16.09.295,regret_experiment,2024.2.4,None,1,0.7,0.2,0.5,2025-08-12 15h16.15.342337 -0700,
13,0,13,left,0.6790068330010399,None,None,,,13,0,13,0,107.42561600002227,,,,,,,,,107.41906958300387,107.42561600002227,0.0008872909820638597,108.41751062497497,14,1,0.7,0.2,0.5,108.41779820801457,108.42366999998922,108.42366999998922,108.42366999998922,108.42366999998922,109.12013875000412,left,0.6790068330010399,None,left,0.6790068330010399,0.7,1,109.13877691602102,109.14673350000521,109.14673350000521,109.14673350000521,109.14673350000521,111.12435825000284,NA,NA,111.12469383300049,111.12474554101937,None,111.12481800001115,111.13394304102985,112.12444495799718,112.11779945797753,108.42366999998922,,,,,,,,,,,088188,001,2025-08-12_15h16.09.295,regret_experiment,2024.2.4,None,1,0.7,0.2,0.5,2025-08-12 15h16.15.342337 -0700,
14,0,14,left,0.5667892919736914,None,None,,,14,0,14,0,112.12444495799718,,,,,,,,,112.11827133299084,112.12444495799718,-0.000292791984975338,113.11748579097912,15,1,0.7,0.2,0.5,113.11773558298592,113.12345162499696,113.12345162499696,113.12345162499696,113.12345162499696,113.70208125002682,left,0.5667892919736914,None,left,0.5667892919736914,0.7,1,113.71980354102561,113.72785750002367,113.72785750002367,113.72785750002367,113.72785750002367,115.71797041600803,NA,NA,115.71847570798127,115.71857020800235,None,115.7186721250182,115.72532520798268,116.72445041598985,116.71761829097522,113.12345162499696,,,,,,,,,,,088188,001,2025-08-12_15h16.09.295,regret_experiment,2024.2.4,None,1,0.7,0.2,0.5,2025-08-12 15h16.15.342337 -0700,
15,0,15,right,1.3888716250075959,None,None,,,15,0,15,0,116.72445041598985,,,,,,,,,116.71848370798398,116.72445041598985,-0.00010166701395064592,117.70719679101603,16,1,0.7,0.2,0.5,117.70745250000618,117.71718666597735,117.71718666597735,117.71718666597735,117.71718666597735,119.1183737909887,right,1.3888716250075959,None,right,1.3888716250075959,0.5,1,119.13626175001264,119.14416116598295,119.14416116598295,119.14416116598295,119.14416116598295,121.12306616600836,NA,NA,121.12335779098794,121.12341754097724,None,121.12350037501892,121.13438820798183,122.12455633300124,122.11788179102587,117.71718666597735,,,,,,,,,,,088188,001,2025-08-12_15h16.09.295,regret_experiment,2024.2.4,None,1,0.7,0.2,0.5,2025-08-12 15h16.15.342337 -0700,
16,0,16,left,0.7454150840057991,None,None,,,16,0,16,0,122.12455633300124,,,,,,,,,122.1186040409957,122.12455633300124,0.0011364580132067204,123.11806583299767,17,1,0.7,0.2,0.5,123.11834941600682,123.12519616598729,123.12519616598729,123.12519616598729,123.12519616598729,123.87417016597465,left,0.7454150840057991,None,left,0.7454150840057991,0.7,1,123.89189054101007,123.90041079098592,123.90041079098592,123.90041079098592,123.90041079098592,125.88402037502965,NA,NA,125.8843249999918,125.88438216602663,None,125.88447062502382,125.8897394160158,126.88377404102357,126.87428654101677,123.12519616598729,,,,,,,,,,,088188,001,2025-08-12_15h16.09.295,regret_experiment,2024.2.4,None,1,0.7,0.2,0.5,2025-08-12 15h16.15.342337 -0700,
17,0,17,left,0.9283924580086023,None,None,,,17,0,17,0,126.88377404102357,,,,,,,,,126.87471250002272,126.88377404102357,-0.0006166659877635539,127.86756699997932,18,1,0.7,0.2,0.5,127.86781041597715,127.87329420802416,127.87329420802416,127.87329420802416,127.87329420802416,128.80693675001385,left,0.9283924580086023,None,left,0.9283924580086023,0.7,1,128.82503675000044,128.83352987503167,128.83352987503167,128.83352987503167,128.83352987503167,130.8173240830074,NA,NA,130.81761516601546,130.81766833300935,None,130.81774283299455,130.82275833300082,131.81717741600005,131.80752583302092,127.87329420802416,,,,,,,,,,,088188,001,2025-08-12_15h16.09.295,regret_experiment,2024.2.4,None,1,0.7,0.2,0.5,2025-08-12 15h16.15.342337 -0700,
18,0,18,right,1.035919832997024,None,None,,,18,0,18,0,131.81717741600005,,,,,,,,,131.807878874999,131.81717741600005,-0.0004899579798802733,132.80084595800145,19,1,0.7,0.2,0.5,132.80108462501084,132.8069915830274,132.8069915830274,132.8069915830274,132.8069915830274,133.85159162501805,right,1.035919832997024,None,right,1.035919832997024,0.5,1,133.86983104102546,133.87784983299207,133.87784983299207,133.87784983299207,133.87784983299207,135.8550651660189,NA,NA,135.8553212910192,135.85536437499104,None,135.85542700003134,135.86673379101558,136.85669770801906,136.85085195797728,132.8069915830274,,,,,,,,,,,088188,001,2025-08-12_15h16.09.295,regret_experiment,2024.2.4,None,1,0.7,0.2,0.5,2025-08-12 15h16.15.342337 -0700,
19,0,19,left,0.8288501669885591,None,1,1.7336830000276677,None,19,0,19,0,136.85669770801906,,,,,,,,,136.8512343330076,136.85669770801906,0.0013405409990809858,137.85096495802281,20,1,0.7,0.2,0.5,137.85121275001438,137.85718545800773,137.85718545800773,137.85718545800773,137.85718545800773,138.69076862500515,left,0.8288501669885591,None,left,0.8288501669885591,0.7,0,138.71155212499434,138.71919858298497,138.71919858298497,138.71919858298497,138.71919858298497,140.7005800830084,1,1.7336830000276677,140.7124190829927,142.45787566597573,1,142.45799487503245,142.46659845800605,143.4568095409777,143.4509284159867,137.85718545800773,140.71906400000444,140.71906400000444,140.71906400000444,140.71906400000444,140.71906400000444,1.7336830000276677,None,,,,088188,001,2025-08-12_15h16.09.295,regret_experiment,2024.2.4,None,1,0.7,0.2,0.5,2025-08-12 15h16.15.342337 -0700,
20,0,20,right,1.7503338750102557,None,2,2.3242235830402933,None,20,0,20,0,143.4568095409777,,,,,,,,,143.45133108302252,143.4568095409777,0.009633250010665506,144.4515337080229,21,1,0.7,0.2,0.5,144.4518029160099,144.4678474580287,144.4678474580287,144.4678474580287,144.4678474580287,146.2253497079946,right,1.7503338750102557,None,right,1.7503338750102557,0.5,0,146.24512604100164,146.25300670799334,146.25300670799334,146.25300670799334,146.25300670799334,148.23487862502225,2,2.3242235830402933,148.2473307499895,150.58542158297496,2,150.5855440000305,150.59316200000467,151.6006925830152,151.5850519160158,144.4678474580287,148.25395433302037,148.25395433302037,148.25395433302037,148.25395433302037,148.25395433302037,2.3242235830402933,None,,,,088188,001,2025-08-12_15h16.09.295,regret_experiment,2024.2.4,None,1,0.7,0.2,0.5,2025-08-12 15h16.15.342337 -0700,
21,0,21,up,0.8020551250083372,None,None,,,21,0,21,0,151.6006925830152,,,,,,,,,151.58548900001915,151.6006925830152,4.249974153935909e-06,152.58521237497916,22,1,0.7,0.2,0.5,152.58548545802478,152.5925187499961,152.5925187499961,152.5925187499961,152.5925187499961,153.40179870801512,up,0.8020551250083372,None,up,0.8020551250083372,0.2,1,153.42054495797493,153.42828779103002,153.42828779103002,153.42828779103002,153.42828779103002,155.40775725001004,NA,NA,155.40845408302266,155.40856383298524,None,155.4086559159914,155.41661270800978,156.40672691602958,156.40076095802942,152.5925187499961,,,,,,,,,,,088188,001,2025-08-12_15h16.09.295,regret_experiment,2024.2.4,None,1,0.7,0.2,0.5,2025-08-12 15h16.15.342337 -0700,
22,0,22,up,0.741053625009954,None,3,1.778292540984694,None,22,0,22,0,156.40672691602958,,,,,,,,,156.40113495802507,156.40672691602958,0.00847195798996836,157.3896051250049,23,1,0.7,0.2,0.5,157.38987137499498,157.40592120803194,157.40592120803194,157.40592120803194,157.40592120803194,158.1519229580299,up,0.741053625009954,None,up,0.741053625009954,0.2,0,158.1717226249748,158.1791646250058,158.1791646250058,158.1791646250058,158.1791646250058,160.15774241602048,3,1.778292540984694,160.16934279102134,161.95958262501517,3,161.95969554100884,161.98406845802674,,162.9673684160225,157.40058374998625,160.17625762498938,160.17625762498938,160.17625762498938,160.17625762498938,160.17625762498938,1.778292540984694,None,,,,088188,001,2025-08-12_15h16.09.295,regret_experiment,2024.2.4,None,1,0.7,0.2,0.5,2025-08-12 15h16.15.342337 -0700,
23,0,23,right,0.7169977090088651,None,2,2.2776452919933945,None,23,0,23,0,162.9744096249924,,,,,,,,,162.96790129097644,162.9744096249924,0.008267875004094094,163.96724416600773,24,1,0.7,0.2,0.5,163.96753954101587,163.97392249997938,163.97392249997938,163.97392249997938,163.97392249997938,164.70169691601768,right,0.7169977090088651,None,right,0.7169977090088651,0.5,0,164.721289374982,164.7291463750298,164.7291463750298,164.7291463750298,164.7291463750298,166.70608650002396,2,2.2776452919933945,166.7169613330043,169.00928720802767,2,169.0094207910006,169.01781041600043,,170.01044420799008,,166.72393187502166,166.72393187502166,166.72393187502166,166.72393187502166,166.72393187502166,2.2776452919933945,None,,,,088188,001,2025-08-12_15h16.09.295,regret_experiment,2024.2.4,None,1,0.7,0.2,0.5,2025-08-12 15h16.15.342337 -0700,
24,0,24,left,1.538995207985863,None,None,,,24,0,24,0,170.02536929101916,,,,,,,,,170.01567404100206,170.02536929101916,0.006330917007289827,171.0172521659988,25,1,0.7,0.2,0.5,171.0175755409873,171.02365583297797,171.02365583297797,171.02365583297797,171.02365583297797,172.5680975409923,left,1.538995207985863,None,left,1.538995207985863,0.7,1,172.58739012503065,172.5952990410151,172.5952990410151,172.5952990410151,172.5952990410151,174.57236133300466,NA,NA,174.5726402910077,174.57270216598408,None,174.5727870829869,174.58394187502563,175.5734529159963,175.56757520802785,,,,,,,,,,,,088188,001,2025-08-12_15h16.09.295,regret_experiment,2024.2.4,None,1,0.7,0.2,0.5,2025-08-12 15h16.15.342337 -0700,
25,0,25,left,0.43517625000094995,None,None,,,25,0,25,0,175.5734529159963,,,,,,,,,175.56794199999422,175.5734529159963,0.0007447079988196492,176.55716266599484,26,1,0.7,0.2,0.5,176.5574271249934,176.5672077080235,176.5672077080235,176.5672077080235,176.5672077080235,177.00720145797823,left,0.43517625000094995,None,left,0.43517625000094995,0.7,1,177.02473466598894,177.03260420798324,177.03260420798324,177.03260420798324,177.03260420798324,179.0168736660271,NA,NA,179.017309457995,179.0173675409751,None,179.01744870800758,179.0233531660051,180.017326125002,180.00726966600632,176.5672077080235,,,,,,,,,,,088188,001,2025-08-12_15h16.09.295,regret_experiment,2024.2.4,None,1,0.7,0.2,0.5,2025-08-12 15h16.15.342337 -0700,
26,0,26,left,0.515469458012376,None,None,,,26,0,26,0,180.017326125002,,,,,,,,,180.00779529102147,180.017326125002,-1.7874990589916706e-05,181.0008549580234,27,1,0.7,0.2,0.5,181.00113929098006,181.00710329099093,181.00710329099093,181.00710329099093,181.00710329099093,181.5253471659962,left,0.515469458012376,None,left,0.515469458012376,0.7,1,181.54380637500435,181.5516826660023,181.5516826660023,181.5516826660023,181.5516826660023,183.53416804102017,NA,NA,183.5348522909917,183.5349218749907,None,183.53507637500297,183.54180729098152,184.54145133303246,184.53498320799554,181.00710329099093,,,,,,,,,,,088188,001,2025-08-12_15h16.09.295,regret_experiment,2024.2.4,None,1,0.7,0.2,0.5,2025-08-12 15h16.15.342337 -0700,
27,0,27,left,0.8232698750216514,None,None,,,27,0,27,0,184.54145133303246,,,,,,,,,184.53543620801065,184.54145133303246,0.00045245804358273745,185.53441908297827,28,1,0.7,0.2,0.5,185.53465624997625,185.5397875829949,185.5397875829949,185.5397875829949,185.5397875829949,186.36856037500547,left,0.8232698750216514,None,left,0.8232698750216514,0.7,1,186.3873818750144,186.39537749998271,186.39537749998271,186.39537749998271,186.39537749998271,188.37298045802163,NA,NA,188.37325574998977,188.37331958301365,None,188.3733956660144,188.38383295800304,189.37521295802435,189.36806795798475,185.5397875829949,,,,,,,,,,,088188,001,2025-08-12_15h16.09.295,regret_experiment,2024.2.4,None,1,0.7,0.2,0.5,2025-08-12 15h16.15.342337 -0700,
28,0,28,left,0.6952742499997839,None,None,,,28,0,28,0,189.37521295802435,,,,,,,,,189.36867283302126,189.37521295802435,0.0018965000053867698,190.36720629100455,29,1,0.7,0.2,0.5,190.367818291008,190.37381312501384,190.37381312501384,190.37381312501384,190.37381312501384,191.07426875003148,left,0.6952742499997839,None,left,0.6952742499997839,0.7,1,191.09160545800114,191.10004166600993,191.10004166600993,191.10004166600993,191.10004166600993,193.0838675830164,NA,NA,193.08415558299748,193.08421095798258,None,193.08429970801808,193.08962754101958,194.09175520797726,194.08456608298002,190.37381312501384,,,,,,,,,,,088188,001,2025-08-12_15h16.09.295,regret_experiment,2024.2.4,None,1,0.7,0.2,0.5,2025-08-12 15h16.15.342337 -0700,
29,0,29,left,0.7367211249656975,None,None,,,29,0,29,0,194.09175520797726,,,,,,,,,194.08513479097746,194.09175520797726,0.0009042500169016421,195.08409745799145,30,1,0.7,0.2,0.5,195.0843471660046,195.09008045803057,195.09008045803057,195.09008045803057,195.09008045803057,195.8349907079828,left,0.7367211249656975,None,left,0.7367211249656975,0.7,1,195.85338366602082,195.86083949997555,195.86083949997555,195.86083949997555,195.86083949997555,197.83945495798253,NA,NA,197.8397612500121,197.8398365409812,None,197.8399226249894,197.8507008330198,198.8413149159751,198.83456537500024,195.09008045803057,,,,,,,,,,,088188,001,2025-08-12_15h16.09.295,regret_experiment,2024.2.4,None,1,0.7,0.2,0.5,2025-08-12 15h16.15.342337 -0700,
30,0,30,left,0.4181610000086948,None,None,,,30,0,30,0,198.8413149159751,,,,,,,,,198.8354942909791,198.8413149159751,0.001482166990172118,199.8340136249899,31,1,0.7,0.2,0.5,199.83425483299652,199.84044820797862,199.84044820797862,199.84044820797862,199.84044820797862,200.2695154999965,left,0.4181610000086948,None,left,0.4181610000086948,0.7,1,200.28737870801706,200.29528358299285,200.29528358299285,200.29528358299285,200.29528358299285,202.27371283300454,NA,NA,202.2741534159868,202.27422241598833,None,202.27430833299877,202.2843449159991,203.275490250031,203.26842079102062,199.84044820797862,,,,,,,,,,,088188,001,2025-08-12_15h16.09.295,regret_experiment,2024.2.4,None,1,0.7,0.2,0.5,2025-08-12 15h16.15.342337 -0700,
31,0,31,left,0.7948338330024853,None,None,,,31,0,31,0,203.275490250031,,,,,,,,,203.26885370799573,203.275490250031,0.0012953340192325413,204.2675962499925,32,1,0.7,0.2,0.5,204.2678712910274,204.273586041003,204.273586041003,204.273586041003,204.273586041003,205.07539574999828,left,0.7948338330024853,None,left,0.7948338330024853,0.7,1,205.09328450000612,205.10201775003225,205.10201775003225,205.10201775003225,205.10201775003225,207.08397416601656,NA,NA,207.0842598329764,207.08432337502018,None,207.08441808301723,207.0897436660016,208.0831096249749,208.07456283300417,204.273586041003,,,,,,,,,,,088188,001,2025-08-12_15h16.09.295,regret_experiment,2024.2.4,None,1,0.7,0.2,0.5,2025-08-12 15h16.15.342337 -0700,
32,0,32,left,0.6640763329924084,None,None,,,32,0,32,0,208.0831096249749,,,,,,,,,208.07517366600223,208.0831096249749,0.005043125012889504,209.06796412501717,33,1,0.7,0.2,0.5,209.06823500001337,209.07478266599355,209.07478266599355,209.07478266599355,209.07478266599355,209.74067262501922,left,0.6640763329924084,None,left,0.6640763329924084,0.7,1,209.7585629579844,209.7671962910099,209.7671962910099,209.7671962910099,209.7671962910099,211.74137679097475,NA,NA,211.74167233298067,211.7417277910281,None,211.74180095799966,211.75096874998417,212.74104437499773,212.73438416601857,209.07478266599355,,,,,,,,,,,088188,001,2025-08-12_15h16.09.295,regret_experiment,2024.2.4,None,1,0.7,0.2,0.5,2025-08-12 15h16.15.342337 -0700,
33,0,33,left,0.4872209579916671,None,None,,,33,0,33,0,212.74104437499773,,,,,,,,,212.73500537499785,212.74104437499773,-0.0006803749711252749,213.724440333026,34,1,0.7,0.2,0.5,213.72470629098825,213.7391354580177,213.7391354580177,213.7391354580177,213.7391354580177,214.23499208298745,left,0.4872209579916671,None,left,0.4872209579916671,0.7,1,214.2529398750048,214.26032858301187,214.26032858301187,214.26032858301187,214.26032858301187,216.23909566598013,NA,NA,216.2395562499878,216.23962800001027,None,216.23973508301424,216.25051745801466,217.2400857079774,217.23434929101495,213.7337713750312,,,,,,,,,,,088188,001,2025-08-12_15h16.09.295,regret_experiment,2024.2.4,None,1,0.7,0.2,0.5,2025-08-12 15h16.15.342337 -0700,
34,0,34,left,1.09625712496927,None,None,,,34,0,34,0,217.2400857079774,,,,,,,,,217.23473070800537,217.2400857079774,0.0004348339862190187,218.22295762499562,35,1,0.7,0.2,0.5,218.22343366598943,218.23387391597498,218.23387391597498,218.23387391597498,218.23387391597498,219.3363851250033,left,1.09625712496927,None,left,1.09625712496927,0.7,1,219.3551797500113,219.36248679098208,219.36248679098208,219.36248679098208,219.36248679098208,221.34104583301814,NA,NA,221.34135025000433,221.34140254103113,None,221.3414923750097,221.3504628749797,222.341859749984,222.33482233301038,218.23387391597498,,,,,,,,,,,088188,001,2025-08-12_15h16.09.295,regret_experiment,2024.2.4,None,1,0.7,0.2,0.5,2025-08-12 15h16.15.342337 -0700,
35,0,35,left,0.412653416977264,None,None,,,35,0,35,0,222.341859749984,,,,,,,,,222.3354865409783,222.341859749984,0.00045012502232566476,223.33477212500293,36,1,0.7,0.2,0.5,223.33517833298538,223.34228400001302,223.34228400001302,223.34228400001302,223.34228400001302,223.7589762500138,left,0.412653416977264,None,left,0.412653416977264,0.7,1,223.7767405830091,223.7851835829788,223.7851835829788,223.7851835829788,223.7851835829788,225.7673822499928,NA,NA,225.76788125000894,225.76795320800738,None,225.76807012502104,225.77452629100299,226.77564520802116,226.7683702079812,223.34228400001302,,,,,,,,,,,088188,001,2025-08-12_15h16.09.295,regret_experiment,2024.2.4,None,1,0.7,0.2,0.5,2025-08-12 15h16.15.342337 -0700,
36,0,36,left,0.31023304199334234,None,None,,,36,0,36,0,226.77564520802116,,,,,,,,,226.7688613749924,226.77564520802116,0.0008765840320847929,227.76839229097823,37,1,0.7,0.2,0.5,227.76879279100103,227.7757633330184,227.7757633330184,227.7757633330184,227.7757633330184,228.0905808749958,left,0.31023304199334234,None,left,0.31023304199334234,0.7,1,228.10799037502147,228.11568579101004,228.11568579101004,228.11568579101004,228.11568579101004,230.10153699998045,NA,NA,230.10183333302848,230.10188450000715,None,230.10195733298315,230.10719900002005,231.10710475000087,231.10092733299825,227.7757633330184,,,,,,,,,,,088188,001,2025-08-12_15h16.09.295,regret_experiment,2024.2.4,None,1,0.7,0.2,0.5,2025-08-12 15h16.15.342337 -0700,
37,0,37,left,0.38986833300441504,None,None,,,37,0,37,0,231.10710475000087,,,,,,,,,231.10137045802549,231.10710475000087,-0.0005359159549698234,232.09069954097504,38,1,0.7,0.2,0.5,232.09095804102253,232.10074433300178,232.10074433300178,232.10074433300178,232.10074433300178,232.5025616249768,left,0.38986833300441504,None,left,0.38986833300441504,0.7,1,232.52068716601934,232.52845995797543,232.52845995797543,232.52845995797543,232.52845995797543,234.50568000000203,NA,NA,234.50596816599136,234.50602308299858,None,234.5060992910294,234.5171788749867,235.50871529098367,235.50146766600665,232.10074433300178,,,,,,,,,,,088188,001,2025-08-12_15h16.09.295,regret_experiment,2024.2.4,None,1,0.7,0.2,0.5,2025-08-12 15h16.15.342337 -0700,
38,0,38,left,0.41117724997457117,None,None,,,38,0,38,0,235.50871529098367,,,,,,,,,235.50209320802242,235.50871529098367,0.0026962499832734466,236.50110008299816,39,1,0.7,0.2,0.5,236.50142174999928,236.50811799999792,236.50811799999792,236.50811799999792,236.50811799999792,236.92509650002467,left,0.41117724997457117,None,left,0.41117724997457117,0.7,1,236.9422553749755,236.94939529098338,236.94939529098338,236.94939529098338,236.94939529098338,238.93400054099038,NA,NA,238.93429591599852,238.93434824998258,None,238.93441891600378,238.93914754100842,239.93384925002465,239.92257991601946,236.50811799999792,,,,,,,,,,,088188,001,2025-08-12_15h16.09.295,regret_experiment,2024.2.4,None,1,0.7,0.2,0.5,2025-08-12 15h16.15.342337 -0700,
39,0,39,left,0.3287950830417685,None,None,,,39,0,39,0,239.93384925002465,,,,,,,,,239.92294725001557,239.93384925002465,-0.000495583051815629,240.9174055000185,40,1,0.7,0.2,0.5,240.91766016598558,240.9234153330326,240.9234153330326,240.9234153330326,240.9234153330326,241.2592463750043,left,0.3287950830417685,None,left,0.3287950830417685,0.7,1,241.2777268330101,241.2856782079907,241.2856782079907,241.2856782079907,241.2856782079907,243.26732112502214,NA,NA,243.26761962502496,243.26767141598975,None,243.26774741598638,243.27313087502262,244.2737153749913,244.26750304101733,240.9234153330326,,,,,,,,,,,088188,001,2025-08-12_15h16.09.295,regret_experiment,2024.2.4,None,1,0.7,0.2,0.5,2025-08-12 15h16.15.342337 -0700,
40,0,40,left,0.6490070000290871,None,None,,,40,0,40,0,244.2737153749913,,,,,,,,,244.26792787498562,244.2737153749913,0.00023495900677517056,245.26765104098013,41,1,0.7,0.2,0.5,245.26786483300384,245.27363808301743,245.27363808301743,245.27363808301743,245.27363808301743,245.9346852080198,left,0.6490070000290871,None,left,0.6490070000290871,0.7,1,245.95319666602882,245.96059441601392,245.96059441601392,245.96059441601392,245.96059441601392,247.9406939999899,NA,NA,247.94100637501106,247.94106545799877,None,247.9411407909938,247.95063020801172,248.94201254099607,248.93506029102718,245.27363808301743,,,,,,,,,,,088188,001,2025-08-12_15h16.09.295,regret_experiment,2024.2.4,None,1,0.7,0.2,0.5,2025-08-12 15h16.15.342337 -0700,
41,0,41,left,4.227840750012547,None,None,,,41,0,41,0,248.94201254099607,,,,,,,,,248.93572941602906,248.94201254099607,0.0009528750088065863,249.9347991250106,42,1,0.7,0.2,0.5,249.93505516601726,249.95119820802938,249.95119820802938,249.95119820802938,249.95119820802938,254.18496799998684,left,4.227840750012547,None,left,4.227840750012547,0.7,1,254.20350629102904,254.21088454098208,254.21088454098208,254.21088454098208,254.21088454098208,256.18973183300113,NA,NA,256.1900013749837,256.1900527080288,None,256.190134458011,256.2004171250155,257.19129295798484,257.18459775001975,249.95119820802938,,,,,,,,,,,088188,001,2025-08-12_15h16.09.295,regret_experiment,2024.2.4,None,1,0.7,0.2,0.5,2025-08-12 15h16.15.342337 -0700,
42,0,42,left,0.3874617079854943,None,None,,,42,0,42,0,257.19129295798484,,,,,,,,,257.18506012501894,257.19129295798484,0.0012456669937819242,258.18471404101,43,1,0.7,0.2,0.5,258.1850143329939,258.1909649579902,258.1909649579902,258.1909649579902,258.1909649579902,258.5848826660076,left,0.3874617079854943,None,left,0.3874617079854943,0.7,1,258.60174408298917,258.60912675003055,258.60912675003055,258.60912675003055,258.60912675003055,260.5890316250152,NA,NA,260.5894725410035,260.5895431250101,None,260.58969487500144,260.600445249991,261.58959287498146,261.5837896250305,258.1909649579902,,,,,,,,,,,088188,001,2025-08-12_15h16.09.295,regret_experiment,2024.2.4,None,1,0.7,0.2,0.5,2025-08-12 15h16.15.342337 -0700,
43,0,43,left,0.35582379199331626,None,None,,,43,0,43,0,261.58959287498146,,,,,,,,,261.5841672079987,261.58959287498146,4.183303099125624e-05,262.5740265410277,44,1,0.7,0.2,0.5,262.5742763329763,262.583797957981,262.583797957981,262.583797957981,262.583797957981,262.9415709580062,left,0.35582379199331626,None,left,0.35582379199331626,0.7,0,262.9627667500172,262.9705940000131,262.9705940000131,262.9705940000131,262.9705940000131,264.9506666660309,NA,NA,264.9509475000086,264.95100008300506,None,264.95107408298645,264.9564590000082,265.9505742500187,265.9407637080294,262.583797957981,,,,,,,,,,,088188,001,2025-08-12_15h16.09.295,regret_experiment,2024.2.4,None,1,0.7,0.2,0.5,2025-08-12 15h16.15.342337 -0700,
44,0,44,right,13.42236074997345,None,None,,,44,0,44,0,265.9505742500187,,,,,,,,,265.94121995801106,265.9505742500187,-0.0003814580268226564,266.9340704579954,45,1,0.7,0.2,0.5,266.93430387502303,266.94002300000284,266.94002300000284,266.94002300000284,266.94002300000284,280.3691979580326,right,13.42236074997345,None,right,13.42236074997345,0.5,1,280.3870813330286,280.3941266249749,280.3941266249749,280.3941266249749,280.3941266249749,282.3746952500078,NA,NA,282.37510825000936,282.37517424998805,None,282.3752732910216,282.38334662502166,283.37496362498496,283.3675999160041,266.94002300000284,,,,,,,,,,,088188,001,2025-08-12_15h16.09.295,regret_experiment,2024.2.4,None,1,0.7,0.2,0.5,2025-08-12 15h16.15.342337 -0700,
45,0,45,left,0.8133450840250589,None,None,,,45,0,45,0,283.37496362498496,,,,,,,,,283.3679737499915,283.37496362498496,-0.0002110410132445395,284.367585666012,46,1,0.7,0.2,0.5,284.3678612909862,284.373129833024,284.373129833024,284.373129833024,284.373129833024,285.20223883300787,left,0.8133450840250589,None,left,0.8133450840250589,0.7,1,285.2201805830118,285.2275671249954,285.2275671249954,285.2275671249954,285.2275671249954,287.2066928750137,NA,NA,287.2070559579879,287.20710829098243,None,287.2071899580187,287.2167516659829,288.20829795801546,288.2010673750192,284.373129833024,,,,,,,,,,,088188,001,2025-08-12_15h16.09.295,regret_experiment,2024.2.4,None,1,0.7,0.2,0.5,2025-08-12 15h16.15.342337 -0700,
46,0,46,left,0.38580720796016976,None,None,,,46,0,46,0,288.20829795801546,,,,,,,,,288.20153766602743,288.20829795801546,0.0011977499816566706,289.1910219999845,47,1,0.7,0.2,0.5,289.19124820799334,289.2005027499981,289.2005027499981,289.2005027499981,289.2005027499981,289.59045262500877,left,0.38580720796016976,None,left,0.38580720796016976,0.7,1,289.607774041011,289.6162331660162,289.6162331660162,289.6162331660162,289.6162331660162,291.601320457994,NA,NA,291.6017385000014,291.60180637502344,None,291.6018870830303,291.61715712503064,292.6089730830281,292.6016138329869,289.2005027499981,,,,,,,,,,,088188,001,2025-08-12_15h16.09.295,regret_experiment,2024.2.4,None,1,0.7,0.2,0.5,2025-08-12 15h16.15.342337 -0700,
47,0,47,left,0.6764787080464885,None,None,,,47,0,47,0,292.6089730830281,,,,,,,,,292.6021987909917,292.6089730830281,0.0003707499708980322,293.60173187498003,48,1,0.7,0.2,0.5,293.6021441660123,293.6093989579822,293.6093989579822,293.6093989579822,293.6093989579822,294.29203054099344,left,0.6764787080464885,None,left,0.6764787080464885,0.7,0,294.31270862498786,294.3204781250097,294.3204781250097,294.3204781250097,294.3204781250097,296.30135912500555,NA,NA,296.3016487910063,296.3017005409929,None,296.3017817910295,296.3178135409835,297.3069461249979,297.30090958299115,293.6093989579822,,,,,,,,,,,088188,001,2025-08-12_15h16.09.295,regret_experiment,2024.2.4,None,1,0.7,0.2,0.5,2025-08-12 15h16.15.342337 -0700,
48,0,48,right,0.6453500420320779,None,None,,,48,0,48,0,297.3069461249979,,,,,,,,,297.30129679100355,297.3069461249979,-0.0004308749921619892,298.30166075000307,49,1,0.7,0.2,0.5,298.30199520802125,298.3090644580079,298.3090644580079,298.3090644580079,298.3090644580079,298.95840804098407,right,0.6453500420320779,None,right,0.6453500420320779,0.5,1,298.9763634580304,298.9848028330016,298.9848028330016,298.9848028330016,298.9848028330016,300.967938582995,NA,NA,300.96821329102386,300.9682697079843,None,300.96834141598083,300.98445204098243,,301.97074904100737,298.3090644580079,,,,,,,,,,,088188,001,2025-08-12_15h16.09.295,regret_experiment,2024.2.4,None,1,0.7,0.2,0.5,2025-08-12 15h16.15.342337 -0700,
49,0,49,up,0.5162572910194285,None,None,,,49,0,49,0,301.9838656660286,,,,,,,,,301.97112654102966,301.9838656660286,0.0028348330524750054,302.968908165989,50,1,0.7,0.2,0.5,302.9692392500001,302.97531275002984,302.97531275002984,302.97531275002984,302.97531275002984,303.5017824579845,up,0.5162572910194285,None,up,0.5162572910194285,0.2,0,303.5212933329749,303.5284852909972,303.5284852909972,303.5284852909972,303.5284852909972,305.50789929099847,NA,NA,305.508199999982,305.5082498330157,None,305.50831983302487,305.517147666018,306.50691645802,306.50095324998256,302.97531275002984,,,,,,,,,,,088188,001,2025-08-12_15h16.09.295,regret_experiment,2024.2.4,None,1,0.7,0.2,0.5,2025-08-12 15h16.15.342337 -0700,
50,0,50,left,0.640526500006672,None,None,,,50,0,50,0,306.50691645802,,,,,,,,,306.50137908302713,306.50691645802,0.009475540951825678,307.5008571249782,51,1,0.7,0.2,0.5,307.5010984580149,307.50657075003255,307.50657075003255,307.50657075003255,307.50657075003255,308.1523913749843,left,0.640526500006672,None,left,0.640526500006672,0.7,1,308.1710919159814,308.17878800001927,308.17878800001927,308.17878800001927,308.17878800001927,310.15620462497463,NA,NA,310.15673070802586,310.15681516600307,None,310.156907416007,310.16751979099354,311.1570466249832,311.1508632909972,307.50657075003255,,,,,,,,,,,088188,001,2025-08-12_15h16.09.295,regret_experiment,2024.2.4,None,1,0.7,0.2,0.5,2025-08-12 15h16.15.342337 -0700,
51,0,51,left,0.5169615420163609,None,None,,,51,0,51,0,311.1570466249832,,,,,,,,,311.1513829160249,311.1570466249832,0.0002227089717052877,312.15099129098235,52,1,0.7,0.2,0.5,312.15129062498454,312.1569610000006,312.1569610000006,312.1569610000006,312.1569610000006,312.68350508302683,left,0.5169615420163609,None,left,0.5169615420163609,0.7,1,312.6922302499879,312.69862641597865,312.69862641597865,312.69862641597865,312.69862641597865,314.6838609999977,NA,NA,314.68417604098795,314.68424783297814,None,314.6843306660303,314.689611083013,315.68389062501956,315.67389958299464,312.1569610000006,,,,,,,,,,,088188,001,2025-08-12_15h16.09.295,regret_experiment,2024.2.4,None,1,0.7,0.2,0.5,2025-08-12 15h16.15.342337 -0700,
52,0,52,right,0.6556575420545414,None,None,,,52,0,52,0,315.68389062501956,,,,,,,,,315.6743140409817,315.68389062501956,-0.0003599170013330877,316.6668012079899,53,1,0.7,0.2,0.5,316.6670702910051,316.68337012501433,316.68337012501433,316.68337012501433,316.68337012501433,317.3416532080155,right,0.6556575420545414,None,right,0.6556575420545414,0.5,0,317.362031415978,317.3698076250148,317.3698076250148,317.3698076250148,317.3698076250148,319.35054908302845,NA,NA,319.3508377909893,319.3509032910224,None,319.35098704101983,319.35766962502385,320.35710279102204,320.35092395800166,316.6716368329944,,,,,,,,,,,088188,001,2025-08-12_15h16.09.295,regret_experiment,2024.2.4,None,1,0.7,0.2,0.5,2025-08-12 15h16.15.342337 -0700,
53,0,53,left,0.3981068329885602,None,None,,,53,0,53,0,320.35710279102204,,,,,,,,,320.351324999996,320.35710279102204,0.00040008395444601774,321.35075699997833,54,1,0.7,0.2,0.5,321.35095641599037,321.3565689160023,321.3565689160023,321.3565689160023,321.3565689160023,321.7570405000006,left,0.3981068329885602,None,left,0.3981068329885602,0.7,1,321.7758586659911,321.7845446250285,321.7845446250285,321.7845446250285,321.7845446250285,323.7672611250309,NA,NA,323.76758137502475,323.76763262500754,None,323.7677075000247,323.77294283302035,,324.7679576249793,321.3565689160023,,,,,,,,,,,088188,001,2025-08-12_15h16.09.295,regret_experiment,2024.2.4,None,1,0.7,0.2,0.5,2025-08-12 15h16.15.342337 -0700,
54,0,54,left,0.32772787497378886,None,None,,,54,0,54,0,324.7838680410059,,,,,,,,,324.76853766600834,324.7838680410059,0.0008833330357447267,325.76754920801613,55,1,0.7,0.2,0.5,325.76780129101826,325.7738511249772,325.7738511249772,325.7738511249772,325.7738511249772,326.1088792909868,left,0.32772787497378886,None,left,0.32772787497378886,0.7,1,326.1287856249837,326.1368912910111,326.1368912910111,326.1368912910111,326.1368912910111,328.11725295800716,NA,NA,328.11785120802233,328.11793979100185,None,328.11804662499344,328.12333062500693,329.1171473750146,329.1076057910104,325.7738511249772,,,,,,,,,,,088188,001,2025-08-12_15h16.09.295,regret_experiment,2024.2.4,None,1,0.7,0.2,0.5,2025-08-12 15h16.15.342337 -0700,
55,0,55,left,0.39822512498358265,None,None,,,55,0,55,0,329.1171473750146,,,,,,,,,329.10798266599886,329.1171473750146,-0.0008077920065261424,330.10121229098877,56,1,0.7,0.2,0.5,330.10143979097484,330.108112832997,330.108112832997,330.108112832997,330.108112832997,330.50864312500926,left,0.39822512498358265,None,left,0.39822512498358265,0.7,0,330.5280651660287,330.53588137502084,330.53588137502084,330.53588137502084,330.53588137502084,332.51771883299807,NA,NA,332.51828274998115,332.51836354099214,None,332.5184637500206,332.52497287502047,333.5245792909991,333.5176935410127,330.108112832997,,,,,,,,,,,088188,001,2025-08-12_15h16.09.295,regret_experiment,2024.2.4,None,1,0.7,0.2,0.5,2025-08-12 15h16.15.342337 -0700,
56,0,56,right,0.3771057080011815,None,None,,,56,0,56,0,333.5245792909991,,,,,,,,,333.51829383301083,333.5245792909991,-0.00010195799404755235,334.5173795000301,57,1,0.7,0.2,0.5,334.51788758300245,334.5247144579771,334.5247144579771,334.5247144579771,334.5247144579771,334.90703495801426,right,0.3771057080011815,None,right,0.3771057080011815,0.5,1,334.92566895799246,334.93399316602154,334.93399316602154,334.93399316602154,334.93399316602154,336.9172012080089,NA,NA,336.91751125000883,336.9175644160132,None,336.9176435410045,336.9229074160103,337.9171592500061,337.90610141598154,334.5247144579771,,,,,,,,,,,088188,001,2025-08-12_15h16.09.295,regret_experiment,2024.2.4,None,1,0.7,0.2,0.5,2025-08-12 15h16.15.342337 -0700,
57,0,57,up,0.45563649997347966,None,None,,,57,0,57,0,337.9171592500061,,,,,,,,,337.9064559160033,337.9171592500061,-0.00040308304596692324,338.9008293329971,58,1,0.7,0.2,0.5,338.9010702910018,338.90675895800814,338.90675895800814,338.90675895800814,338.90675895800814,339.3690685000038,up,0.45563649997347966,None,up,0.45563649997347966,0.2,1,339.3871517080115,339.3951600000146,339.3951600000146,339.3951600000146,339.3951600000146,341.3745827500243,NA,NA,341.37486733298283,341.3749180000159,None,341.37499004101846,341.384359083022,342.37560745800147,342.3688702500076,338.90675895800814,,,,,,,,,,,088188,001,2025-08-12_15h16.09.295,regret_experiment,2024.2.4,None,1,0.7,0.2,0.5,2025-08-12 15h16.15.342337 -0700,
58,0,58,right,0.35543920804047957,None,None,,,58,0,58,0,342.37560745800147,,,,,,,,,342.36937949998537,342.37560745800147,0.0006949579692445695,343.36788154102396,59,1,0.7,0.2,0.5,343.3681679579895,343.37525333301164,343.37525333301164,343.37525333301164,343.37525333301164,343.7369525000104,right,0.35543920804047957,None,right,0.35543920804047957,0.5,1,343.7552475830307,343.7630721660098,343.7630721660098,343.7630721660098,343.7630721660098,345.7375192909967,NA,NA,345.7378267500317,345.73787829099456,None,345.7379501250107,345.7500817910186,346.74148070800584,346.73453133302974,343.37525333301164,,,,,,,,,,,088188,001,2025-08-12_15h16.09.295,regret_experiment,2024.2.4,None,1,0.7,0.2,0.5,2025-08-12 15h16.15.342337 -0700,
59,0,59,up,0.4601371250464581,None,None,,,59,0,59,0,346.74148070800584,,,,,,,,,346.7348944580299,346.74148070800584,0.003606916987337172,347.7350236250204,60,1,0.7,0.2,0.5,347.73527424997883,347.7512342080008,347.7512342080008,347.7512342080008,347.7512342080008,348.2194114580052,up,0.4601371250464581,None,up,0.4601371250464581,0.2,0,348.2397792080301,348.2474645409966,348.2474645409966,348.2474645409966,348.2474645409966,350.2229612499941,NA,NA,350.22321433300385,350.2232662080205,None,350.22333820798667,350.23385012499057,351.24755458300933,351.2186051660101,347.7512342080008,,,,,,,,,,,088188,001,2025-08-12_15h16.09.295,regret_experiment,2024.2.4,None,1,0.7,0.2,0.5,2025-08-12 15h16.15.342337 -0700,
,,,,,,,,,,,,,,,,,,,,,,,,,,,,,,,,,,,,,,,,,,,,,,,,,,,,,,,,,,,,,,,,,,,N/A,351.24032741598785,351.24755458300933,,,,,,,,,,,,
