thisN,thisTrialN,thisRepN,key_resp_1.keys,key_resp_1.rt,key_resp_1.duration,regret_key.keys,regret_key.rt,regret_key.duration,trials.thisRepN,trials.thisTrialN,trials.thisN,trials.thisIndex,thisRow.t,notes,begin_exp.started,begin.started,advance_key.started,begin_exp.stopped,advance_key.keys,advance_key.rt,advance_key.duration,Fixation.started,fixcross.started,etRecord.started,Fixation.stopped,trial_num,participant_cond,prob_left,prob_up,prob_right,Choice.started,tree1_img.started,tree2_img.started,tree3_img.started,key_resp_1.started,Choice.stopped,trials.key_resp_1.keys,trials.key_resp_1.rt,trials.key_resp_1.duration,choice_key,choice_rt,choice_prob,points,Feedback.started,appleImage.started,tree1.started,tree2.started,tree3.started,Feedback.stopped,RegretRating.started,regret_scale.started,regret_key.started,rtree1.started,rtree2.started,rtree3.started,RegretRating.stopped,trials.regret_key.keys,trials.regret_key.rt,trials.regret_key.duration,regret_rating,regret_rt,ITI.started,blank_screen.started,blank_screen.stopped,ITI.stopped,fixcross.stopped,avg_regret,EndScreen.started,end_display.started,participant,session,date,expName,psychopyVersion,frameRate,participant_cond,prob_left,prob_up,prob_right,expStart,
,,,,,,,,,,,,,,,0.010569125006441027,0.021172332984860986,0.021172332984860986,2.079261915991083,space,2.0129789580241777,None,,,,,,1,0.2,0.7,0.5,,,,,,,,,,,,,,,,,,,,,,,,,,,,,,,,,,,,,,,,135340,001,2025-08-11_15h15.46.004,regret_experiment,2024.2.4,120.33863198661325,1,0.2,0.7,0.5,2025-08-11 15h15.57.659435 -0700,
0,0,0,right,0.8928069999674335,None,3,3.5645172499935143,None,0,0,0,0,2.636997082969174,,,,,,,,,2.0808172909892164,2.636997082969174,0.0015162499621510506,3.088452166004572,1,1,0.2,0.7,0.5,3.088865374971647,3.0983029999770224,3.0983029999770224,3.0983029999770224,3.0983029999770224,3.9956297909957357,right,0.8928069999674335,None,right,0.8928069999674335,0.5,0,4.020184958004393,4.137636250001378,4.137636250001378,4.137636250001378,4.137636250001378,6.0047462079674006,6.010644665977452,6.017931249982212,6.017931249982212,6.017931249982212,6.017931249982212,6.017931249982212,9.594156500010286,3,3.5645172499935143,None,3,3.5645172499935143,9.597074416000396,9.605719499988481,10.60541470797034,10.589731165964622,,,,,135340,001,2025-08-11_15h15.46.004,regret_experiment,2024.2.4,120.33863198661325,1,0.2,0.7,0.5,2025-08-11 15h15.57.659435 -0700,
1,0,1,up,1.1678826250135899,None,2,2.740718332992401,None,1,0,1,0,10.60541470797034,,,,,,,,,10.591396207979415,10.60541470797034,0.009078375005628914,11.588964750000741,2,1,0.2,0.7,0.5,11.589448000013363,11.596867790969554,11.596867790969554,11.596867790969554,11.596867790969554,12.773892165976577,up,1.1678826250135899,None,up,1.1678826250135899,0.7,0,12.808689332974609,12.828988916007802,12.828988916007802,12.828988916007802,12.828988916007802,14.776990125013981,14.791053999972064,15.024049166007899,15.024049166007899,15.024049166007899,15.024049166007899,15.024049166007899,17.773069165996276,2,2.740718332992401,None,2,2.740718332992401,17.77324091596529,17.786201582988724,18.779514957976062,18.772778624959756,11.596867790969554,,,,135340,001,2025-08-11_15h15.46.004,regret_experiment,2024.2.4,120.33863198661325,1,0.2,0.7,0.5,2025-08-11 15h15.57.659435 -0700,
2,0,2,left,1.0629907079855911,None,2,2.1643713749945164,None,2,0,2,0,18.779514957976062,,,,,,,,,18.773516582965385,18.779514957976062,0.00038174999644979835,19.772596750000957,3,1,0.2,0.7,0.5,19.772825166000985,19.78058370796498,19.78058370796498,19.78058370796498,19.78058370796498,20.84615549998125,left,1.0629907079855911,None,left,1.0629907079855911,0.2,0,20.863091000006534,20.87169829098275,20.87169829098275,20.87169829098275,20.87169829098275,22.85498787497636,22.868016624997836,22.875442249991465,22.875442249991465,22.875442249991465,22.875442249991465,22.875442249991465,25.056073374988046,2,2.1643713749945164,None,2,2.1643713749945164,25.05636508297175,25.068682832992636,,26.056526499975007,19.78058370796498,,,,135340,001,2025-08-11_15h15.46.004,regret_experiment,2024.2.4,120.33863198661325,1,0.2,0.7,0.5,2025-08-11 15h15.57.659435 -0700,
3,0,3,right,1.7162520829588175,None,2,1.4621409579995088,None,3,0,3,0,26.07193549996009,,,,,,,,,26.057019040978048,26.07193549996009,0.0008065830334089696,27.056214790965896,4,1,0.2,0.7,0.5,27.056485040986445,27.063926499977242,27.063926499977242,27.063926499977242,27.063926499977242,28.789853708003648,right,1.7162520829588175,None,right,1.7162520829588175,0.5,0,28.81431975000305,28.824014999961946,28.824014999961946,28.824014999961946,28.824014999961946,30.7941886659828,30.806797624973115,30.813620375003666,30.813620375003666,30.813620375003666,30.813620375003666,30.813620375003666,32.27712291601347,2,1.4621409579995088,None,2,1.4621409579995088,32.2771815409651,32.288275333005004,33.27744195796549,33.271828999975696,27.063926499977242,,,,135340,001,2025-08-11_15h15.46.004,regret_experiment,2024.2.4,120.33863198661325,1,0.2,0.7,0.5,2025-08-11 15h15.57.659435 -0700,
4,0,4,left,0.7808129170443863,None,1,2.855740540951956,None,4,0,4,0,33.27744195796549,,,,,,,,,33.27221324999118,33.27744195796549,0.0003993749851360917,34.273010207980406,5,1,0.2,0.7,0.5,34.27329091599677,34.27907808299642,34.27907808299642,34.27907808299642,34.27907808299642,35.06205970799783,left,0.7808129170443863,None,left,0.7808129170443863,0.2,0,35.08123454096494,35.09154562500771,35.09154562500771,35.09154562500771,35.09154562500771,37.06230312498519,37.07662712497404,37.08413658296922,37.08413658296922,37.08413658296922,37.08413658296922,37.08413658296922,39.94589704100508,1,2.855740540951956,None,1,2.855740540951956,39.946128082985524,39.95557716599433,40.94666958297603,40.939023082959466,34.27907808299642,,,,135340,001,2025-08-11_15h15.46.004,regret_experiment,2024.2.4,120.33863198661325,1,0.2,0.7,0.5,2025-08-11 15h15.57.659435 -0700,
5,0,5,up,0.730633958010003,None,1,0.7042290410026908,None,5,0,5,0,40.94666958297603,,,,,,,,,40.93977274995996,40.94666958297603,0.0007110839942470193,41.93946349999169,6,1,0.2,0.7,0.5,41.93990479101194,41.94650999997975,41.94650999997975,41.94650999997975,41.94650999997975,42.679295415990055,up,0.730633958010003,None,up,0.730633958010003,0.7,0,42.698457874997985,42.708868082962,42.708868082962,42.708868082962,42.708868082962,44.68875479098642,44.701290416007396,44.70773704099702,44.70773704099702,44.70773704099702,44.70773704099702,44.70773704099702,45.413654749980196,1,0.7042290410026908,None,1,0.7042290410026908,45.4138519159751,45.42271904100198,46.413274624967016,46.40610337496037,41.94650999997975,,,,135340,001,2025-08-11_15h15.46.004,regret_experiment,2024.2.4,120.33863198661325,1,0.2,0.7,0.5,2025-08-11 15h15.57.659435 -0700,
6,0,6,right,0.46470545895863324,None,1,0.49711733299773186,None,6,0,6,0,46.413274624967016,,,,,,,,,46.40668212500168,46.413274624967016,-0.0004570829914882779,47.40582879097201,7,1,0.2,0.7,0.5,47.40608354099095,47.41155899997102,47.41155899997102,47.41155899997102,47.41155899997102,47.87935737497173,right,0.46470545895863324,None,right,0.46470545895863324,0.5,0,47.899068458005786,47.906212124973536,47.906212124973536,47.906212124973536,47.906212124973536,49.88878387497971,49.90288258297369,49.909990249958355,49.909990249958355,49.909990249958355,49.909990249958355,49.909990249958355,50.412878666014876,1,0.49711733299773186,None,1,0.49711733299773186,50.4130027499632,50.43805120798061,,51.422376208007336,47.41155899997102,,,,135340,001,2025-08-11_15h15.46.004,regret_experiment,2024.2.4,120.33863198661325,1,0.2,0.7,0.5,2025-08-11 15h15.57.659435 -0700,
7,0,7,left,0.8301475000334904,None,1,0.776507832983043,None,7,0,7,0,51.430538499960676,,,,,,,,,51.42304470797535,51.430538499960676,0.010109582974109799,52.42206858296413,8,1,0.2,0.7,0.5,52.42257333296584,52.42976245796308,52.42976245796308,52.42976245796308,52.42976245796308,53.261837291007396,left,0.8301475000334904,None,left,0.8301475000334904,0.2,0,53.28166991600301,53.2894852499594,53.2894852499594,53.2894852499594,53.2894852499594,55.27218762499979,55.28481224999996,55.2919353749603,55.2919353749603,55.2919353749603,55.2919353749603,55.2919353749603,56.0733092079754,1,0.776507832983043,None,1,0.776507832983043,56.0734852909809,56.079142833012156,57.07209641597001,57.06206874997588,,,,,135340,001,2025-08-11_15h15.46.004,regret_experiment,2024.2.4,120.33863198661325,1,0.2,0.7,0.5,2025-08-11 15h15.57.659435 -0700,
8,0,8,up,0.5194030000129715,None,None,,,8,0,8,0,57.07209641597001,,,,,,,,,57.062517207989,57.07209641597001,0.004203290969599038,58.0558237080113,9,1,0.2,0.7,0.5,58.05613604100654,58.07186583301518,58.07186583301518,58.07186583301518,58.07186583301518,58.595654333010316,up,0.5194030000129715,None,up,0.5194030000129715,0.7,1,58.61584479099838,58.62430312496144,58.62430312496144,58.62430312496144,58.62430312496144,60.605699166015256,60.606203166011255,,,,,,60.60628166596871,None,,,NA,NA,60.60638058296172,60.612645916000474,61.61342800001148,61.60657095798524,58.06176249997225,,,,135340,001,2025-08-11_15h15.46.004,regret_experiment,2024.2.4,120.33863198661325,1,0.2,0.7,0.5,2025-08-11 15h15.57.659435 -0700,
9,0,9,up,1.4224559579743072,None,1,0.6458290410228074,None,9,0,9,0,61.61342800001148,,,,,,,,,61.60705687501468,61.61342800001148,0.0007470829878002405,62.60582345799776,10,1,0.2,0.7,0.5,62.606075040996075,62.61308466596529,62.61308466596529,62.61308466596529,62.61308466596529,64.04041675000917,up,1.4224559579743072,None,up,1.4224559579743072,0.7,0,64.06010724999942,64.0678181250114,64.0678181250114,64.0678181250114,64.0678181250114,66.0434093750082,66.05563091597287,66.06219054100802,66.06219054100802,66.06219054100802,66.06219054100802,66.06219054100802,66.71326258301269,1,0.6458290410228074,None,1,0.6458290410228074,66.71347316598985,66.7226175830001,67.71196391596459,67.70598158298526,62.61308466596529,,,,135340,001,2025-08-11_15h15.46.004,regret_experiment,2024.2.4,120.33863198661325,1,0.2,0.7,0.5,2025-08-11 15h15.57.659435 -0700,
10,0,10,right,0.44439208396943286,None,1,3.4531836669775657,None,10,0,10,0,67.71196391596459,,,,,,,,,67.70638187497389,67.71196391596459,0.008403000014368445,68.69495387497591,11,1,0.2,0.7,0.5,68.69534345797729,68.71229850000236,68.71229850000236,68.71229850000236,68.71229850000236,69.16534645797219,right,0.44439208396943286,None,right,0.44439208396943286,0.5,0,69.18448541598627,69.19182191597065,69.19182191597065,69.19182191597065,69.19182191597065,71.17234737495892,71.1849326659576,71.19137733295793,71.19137733295793,71.19137733295793,71.19137733295793,71.19137733295793,74.64757525001187,1,3.4531836669775657,None,1,3.4531836669775657,74.64770508301444,74.67143045796547,,75.65539645799436,68.7056107079843,,,,135340,001,2025-08-11_15h15.46.004,regret_experiment,2024.2.4,120.33863198661325,1,0.2,0.7,0.5,2025-08-11 15h15.57.659435 -0700,
11,0,11,up,2.2124525000108406,None,1,0.6428132500150241,None,11,0,11,0,75.66274941596203,,,,,,,,,75.65603762498358,75.66274941596203,0.008443167025689036,76.64564916596282,12,1,0.2,0.7,0.5,76.64590220799437,76.65563608298544,76.65563608298544,76.65563608298544,76.65563608298544,78.87271445797523,up,2.2124525000108406,None,up,2.2124525000108406,0.7,0,78.88440329098376,78.88984733296093,78.88984733296093,78.88984733296093,78.88984733296093,80.87876816600328,80.8905635830015,80.89717995800311,80.89717995800311,80.89717995800311,80.89717995800311,80.89717995800311,81.54667629097821,1,0.6428132500150241,None,1,0.6428132500150241,81.54680416599149,81.55560179101303,82.54677579097915,82.53945833299076,76.65563608298544,,,,135340,001,2025-08-11_15h15.46.004,regret_experiment,2024.2.4,120.33863198661325,1,0.2,0.7,0.5,2025-08-11 15h15.57.659435 -0700,
12,0,12,right,0.5400565829477273,None,None,,,12,0,12,0,82.54677579097915,,,,,,,,,82.54026599996723,82.54677579097915,6.133300485089421e-05,83.53879016597057,13,1,0.2,0.7,0.5,83.539048000006,83.54455583298113,83.54455583298113,83.54455583298113,83.54455583298113,84.0904604580137,right,0.5400565829477273,None,right,0.5400565829477273,0.5,1,84.11078925000038,84.11803474999033,84.11803474999033,84.11803474999033,84.11803474999033,86.09354779100977,86.09382549999282,,,,,,86.0938801249722,None,,,NA,NA,86.09395308297826,86.10430208296748,87.0964905829751,87.08937854098622,83.54455583298113,,,,135340,001,2025-08-11_15h15.46.004,regret_experiment,2024.2.4,120.33863198661325,1,0.2,0.7,0.5,2025-08-11 15h15.57.659435 -0700,
13,0,13,left,0.8842517089797184,None,1,0.44703337497776374,None,13,0,13,0,87.0964905829751,,,,,,,,,87.08991416596109,87.0964905829751,0.0026308749802410603,88.08900375000667,14,1,0.2,0.7,0.5,88.08934845798649,88.09521950001363,88.09521950001363,88.09521950001363,88.09521950001363,88.99014983297093,left,0.8842517089797184,None,left,0.8842517089797184,0.2,0,89.01143608300481,89.01867654098896,89.01867654098896,89.01867654098896,89.01867654098896,90.99516541598132,91.00706516596256,91.0136370830005,91.0136370830005,91.0136370830005,91.0136370830005,91.0136370830005,91.46205912501318,1,0.44703337497776374,None,1,0.44703337497776374,91.46212170796935,91.47143266600324,92.4618792500114,92.45575854100753,88.09521950001363,,,,135340,001,2025-08-11_15h15.46.004,regret_experiment,2024.2.4,120.33863198661325,1,0.2,0.7,0.5,2025-08-11 15h15.57.659435 -0700,
14,0,14,up,0.5647598330397159,None,1,0.5826383749954402,None,14,0,14,0,92.4618792500114,,,,,,,,,92.45626291597728,92.4618792500114,-0.00013175001367926598,93.45625116600422,15,1,0.2,0.7,0.5,93.45652879099362,93.46350341598736,93.46350341598736,93.46350341598736,93.46350341598736,94.03014487499604,up,0.5647598330397159,None,up,0.5647598330397159,0.7,0,94.0491989160073,94.0571649579797,94.0571649579797,94.0571649579797,94.0571649579797,96.04569241596619,96.05570983298821,96.0619331659982,96.0619331659982,96.0619331659982,96.0619331659982,96.0619331659982,96.64693241601344,1,0.5826383749954402,None,1,0.5826383749954402,96.64706554100849,96.6551733330125,97.6465920410119,97.63995325000724,93.46350341598736,,,,135340,001,2025-08-11_15h15.46.004,regret_experiment,2024.2.4,120.33863198661325,1,0.2,0.7,0.5,2025-08-11 15h15.57.659435 -0700,
15,0,15,right,0.43745737499557436,None,None,,,15,0,15,0,97.6465920410119,,,,,,,,,97.64044566598022,97.6465920410119,-0.0003782919957302511,98.63951383298263,16,1,0.2,0.7,0.5,98.639861750009,98.64697962498758,98.64697962498758,98.64697962498758,98.64697962498758,99.08989545796067,right,0.43745737499557436,None,right,0.43745737499557436,0.5,1,99.1086932499893,99.11624558299081,99.11624558299081,99.11624558299081,99.11624558299081,101.09360520797782,101.0938614999759,,,,,,101.09390787500888,None,,,NA,NA,101.09397399995942,101.10508449998451,102.10571491596056,102.08981162495911,98.64697962498758,,,,135340,001,2025-08-11_15h15.46.004,regret_experiment,2024.2.4,120.33863198661325,1,0.2,0.7,0.5,2025-08-11 15h15.57.659435 -0700,
16,0,16,left,0.6954042079742067,None,1,0.8830775000387803,None,16,0,16,0,102.10571491596056,,,,,,,,,102.09031266596867,102.10571491596056,0.01185375003842637,103.08898295799736,17,1,0.2,0.7,0.5,103.08927683299407,103.09460895799566,103.09460895799566,103.09460895799566,103.09460895799566,103.79628583299927,left,0.6954042079742067,None,left,0.6954042079742067,0.2,0,103.8172145409626,103.82515016599791,103.82515016599791,103.82515016599791,103.82515016599791,105.80565749999369,105.8186472079833,105.82566999999108,105.82566999999108,105.82566999999108,105.82566999999108,105.82566999999108,106.71284016600111,1,0.8830775000387803,None,1,0.8830775000387803,106.71296337497188,106.72014058299828,107.71317779098172,107.70614766597282,103.09460895799566,,,,135340,001,2025-08-11_15h15.46.004,regret_experiment,2024.2.4,120.33863198661325,1,0.2,0.7,0.5,2025-08-11 15h15.57.659435 -0700,
17,0,17,up,0.5732030830113217,None,None,,,17,0,17,0,107.71317779098172,,,,,,,,,107.70679704099894,107.71317779098172,0.0003123339847661555,108.70554616599111,18,1,0.2,0.7,0.5,108.70580808300292,108.71158962498885,108.71158962498885,108.71158962498885,108.71158962498885,109.28973829100141,up,0.5732030830113217,None,up,0.5732030830113217,0.7,1,109.30828654096695,109.31597499997588,109.31597499997588,109.31597499997588,109.31597499997588,111.2953015830135,111.29558991600061,,,,,,111.29564183298498,None,,,NA,NA,111.2957212079782,111.30525758297881,112.29619629099034,112.2893778749858,108.71158962498885,,,,135340,001,2025-08-11_15h15.46.004,regret_experiment,2024.2.4,120.33863198661325,1,0.2,0.7,0.5,2025-08-11 15h15.57.659435 -0700,
18,0,18,right,0.3799435830442235,None,1,1.0668737079831772,None,18,0,18,0,112.29619629099034,,,,,,,,,112.29006099997787,112.29619629099034,0.0005559579585678875,113.28939479100518,19,1,0.2,0.7,0.5,113.28970466600731,113.29606295796111,113.29606295796111,113.29606295796111,113.29606295796111,113.67990837496473,right,0.3799435830442235,None,right,0.3799435830442235,0.5,0,113.69963366596494,113.70736704097362,113.70736704097362,113.70736704097362,113.70736704097362,115.68889599997783,115.70094879099634,115.70773379097227,115.70773379097227,115.70773379097227,115.70773379097227,115.70773379097227,116.78064945799997,1,1.0668737079831772,None,1,1.0668737079831772,116.78076941601466,116.7892074160045,117.78049833298428,117.77311795798596,113.29606295796111,,,,135340,001,2025-08-11_15h15.46.004,regret_experiment,2024.2.4,120.33863198661325,1,0.2,0.7,0.5,2025-08-11 15h15.57.659435 -0700,
19,0,19,right,0.4456018749624491,None,None,,,19,0,19,0,117.78049833298428,,,,,,,,,117.7737376249861,117.78049833298428,-0.00018470798386260867,118.77192079101223,20,1,0.2,0.7,0.5,118.77220262499759,118.77791520796018,118.77791520796018,118.77791520796018,118.77791520796018,119.22824187501101,right,0.4456018749624491,None,right,0.4456018749624491,0.5,1,119.24605820799479,119.25454591598827,119.25454591598827,119.25454591598827,119.25454591598827,121.23864362499444,121.23898129101144,,,,,,121.23903950001113,None,,,NA,NA,121.23920399998315,121.24460224999348,122.23870579100912,122.22840625001118,118.77791520796018,,,,135340,001,2025-08-11_15h15.46.004,regret_experiment,2024.2.4,120.33863198661325,1,0.2,0.7,0.5,2025-08-11 15h15.57.659435 -0700,
20,0,20,up,0.9199141249991953,None,None,,,20,0,20,0,122.23870579100912,,,,,,,,,122.22886941599427,122.23870579100912,-0.00036095798714086413,123.22222891601268,21,1,0.2,0.7,0.5,123.22249774995726,123.22847616596846,123.22847616596846,123.22847616596846,123.22847616596846,124.15614995796932,up,0.9199141249991953,None,up,0.9199141249991953,0.7,1,124.17344666598365,124.18145441601519,124.18145441601519,124.18145441601519,124.18145441601519,126.17201866599498,126.17226695799036,,,,,,126.17231037496822,None,,,NA,NA,126.17237691598712,126.17744187498465,127.17208212497644,127.16181620798307,123.22847616596846,,,,135340,001,2025-08-11_15h15.46.004,regret_experiment,2024.2.4,120.33863198661325,1,0.2,0.7,0.5,2025-08-11 15h15.57.659435 -0700,
21,0,21,left,0.44531833298970014,None,1,2.4454438750399277,None,21,0,21,0,127.17208212497644,,,,,,,,,127.1623260829947,127.17208212497644,-0.00019266695016995072,128.15585612499854,22,1,0.2,0.7,0.5,128.15612316597253,128.16227995796362,128.16227995796362,128.16227995796362,128.16227995796362,128.61230433301535,left,0.44531833298970014,None,left,0.44531833298970014,0.2,0,128.63206666597398,128.63969329098472,128.63969329098472,128.63969329098472,128.63969329098472,130.62251891597407,130.6352877499885,130.64924245799193,130.64924245799193,130.64924245799193,130.64924245799193,130.64924245799193,133.09720629098592,1,2.4454438750399277,None,1,2.4454438750399277,133.09734325000318,133.10585704096593,134.0940272079897,134.08899745799135,128.16227995796362,,,,135340,001,2025-08-11_15h15.46.004,regret_experiment,2024.2.4,120.33863198661325,1,0.2,0.7,0.5,2025-08-11 15h15.57.659435 -0700,
22,0,22,left,0.638599791971501,None,1,0.6648994580027647,None,22,0,22,0,134.0940272079897,,,,,,,,,134.0892587910057,134.0940272079897,0.007213292003143579,135.07850591599708,23,1,0.2,0.7,0.5,135.07879479101393,135.09481958299875,135.09481958299875,135.09481958299875,135.09481958299875,135.73985995800467,left,0.638599791971501,None,left,0.638599791971501,0.2,0,135.76052712497767,135.76786954101408,135.76786954101408,135.76786954101408,135.76786954101408,137.74527883296832,137.75702525000088,137.76397308299784,137.76397308299784,137.76397308299784,137.76397308299784,137.76397308299784,138.44057495798916,1,0.6648994580027647,None,1,0.6648994580027647,138.44069625000702,138.4486528330017,139.44671762496,139.43935695796972,135.08867645799182,,,,135340,001,2025-08-11_15h15.46.004,regret_experiment,2024.2.4,120.33863198661325,1,0.2,0.7,0.5,2025-08-11 15h15.57.659435 -0700,
23,0,23,right,0.42134716699365526,None,1,0.8421864160336554,None,23,0,23,0,139.44671762496,,,,,,,,,139.43991454096977,139.44671762496,-0.0007126249838620424,140.43941708299099,24,1,0.2,0.7,0.5,140.43976616597502,140.44645566598047,140.44645566598047,140.44645566598047,140.44645566598047,140.8734096249682,right,0.42134716699365526,None,right,0.42134716699365526,0.5,0,140.89360737497918,140.9011512500001,140.9011512500001,140.9011512500001,140.9011512500001,142.87694970797747,142.89101791597204,142.89789587497944,142.89789587497944,142.89789587497944,142.89789587497944,142.89789587497944,143.74683625000762,1,0.8421864160336554,None,1,0.8421864160336554,143.74695579096442,143.75544091599295,144.74493258300936,144.73906399996486,140.44645566598047,,,,135340,001,2025-08-11_15h15.46.004,regret_experiment,2024.2.4,120.33863198661325,1,0.2,0.7,0.5,2025-08-11 15h15.57.659435 -0700,
24,0,24,left,0.3155240420019254,None,1,0.48914033302571625,None,24,0,24,0,144.74493258300936,,,,,,,,,144.73969137499807,144.74493258300936,0.00787808297900483,145.73897070798557,25,1,0.2,0.7,0.5,145.7392253750004,145.74485733296024,145.74485733296024,145.74485733296024,145.74485733296024,146.06312358297873,left,0.3155240420019254,None,left,0.3155240420019254,0.2,0,146.0827616250026,146.0904554160079,146.0904554160079,146.0904554160079,146.0904554160079,148.072033000004,148.08465724997222,148.09114920796128,148.09114920796128,148.09114920796128,148.09114920796128,148.09114920796128,148.5897300830111,1,0.48914033302571625,None,1,0.48914033302571625,148.58984820800833,148.59826175001217,149.59556358295958,149.58918962499592,145.74485733296024,,,,135340,001,2025-08-11_15h15.46.004,regret_experiment,2024.2.4,120.33863198661325,1,0.2,0.7,0.5,2025-08-11 15h15.57.659435 -0700,
25,0,25,up,0.5198866249993443,None,None,,,25,0,25,0,149.59556358295958,,,,,,,,,149.58958854101365,149.59556358295958,-0.00019791699014604092,150.5786928749876,26,1,0.2,0.7,0.5,150.5789758329629,150.58864475000883,150.58864475000883,150.58864475000883,150.58864475000883,151.11200554098468,up,0.5198866249993443,None,up,0.5198866249993443,0.7,1,151.1306807079818,151.1389531659661,151.1389531659661,151.1389531659661,151.1389531659661,153.12217379099457,153.12259887496475,,,,,,153.12268158298684,None,,,NA,NA,153.1227653750102,153.1287790829665,154.1219032909721,154.1118587909732,150.58864475000883,,,,135340,001,2025-08-11_15h15.46.004,regret_experiment,2024.2.4,120.33863198661325,1,0.2,0.7,0.5,2025-08-11 15h15.57.659435 -0700,
26,0,26,left,0.46352462499635294,None,1,0.6156065000104718,None,26,0,26,0,154.1219032909721,,,,,,,,,154.11227774998406,154.1219032909721,-0.0007811659597791731,155.10548670799471,27,1,0.2,0.7,0.5,155.1057365409797,155.11145495797973,155.11145495797973,155.11145495797973,155.11145495797973,155.57988704100717,left,0.46352462499635294,None,left,0.46352462499635294,0.2,0,155.59934474999318,155.60705195798073,155.60705195798073,155.60705195798073,155.60705195798073,157.5891961659654,157.60149108298356,157.6077883329708,157.6077883329708,157.6077883329708,157.6077883329708,157.6077883329708,158.23076033301186,1,0.6156065000104718,None,1,0.6156065000104718,158.23088579101022,158.25464708299842,,159.23877349996474,155.11145495797973,,,,135340,001,2025-08-11_15h15.46.004,regret_experiment,2024.2.4,120.33863198661325,1,0.2,0.7,0.5,2025-08-11 15h15.57.659435 -0700,
27,0,27,up,0.351514583977405,None,None,,,27,0,27,0,159.2456673749839,,,,,,,,,159.23951024998678,159.2456673749839,0.008704125008080155,160.23864295799285,28,1,0.2,0.7,0.5,160.23891870799707,160.24489599996014,160.24489599996014,160.24489599996014,160.24489599996014,160.60714895796264,up,0.351514583977405,None,up,0.351514583977405,0.7,1,160.6273417909979,160.63513166597113,160.63513166597113,160.63513166597113,160.63513166597113,162.61252299998887,162.61283116601408,,,,,,162.6128841660102,None,,,NA,NA,162.61297041596845,162.6218163750018,163.6131102499785,163.6061614159844,,,,,135340,001,2025-08-11_15h15.46.004,regret_experiment,2024.2.4,120.33863198661325,1,0.2,0.7,0.5,2025-08-11 15h15.57.659435 -0700,
28,0,28,up,0.4102580419857986,None,None,,,28,0,28,0,163.6131102499785,,,,,,,,,163.60672425001394,163.6131102499785,0.0002192090032622218,164.60611820797203,29,1,0.2,0.7,0.5,164.60641554096946,164.61335062497528,164.61335062497528,164.61335062497528,164.61335062497528,165.02856687497115,up,0.4102580419857986,None,up,0.4102580419857986,0.7,1,165.04658208298497,165.05495845800033,165.05495845800033,165.05495845800033,165.05495845800033,167.0387633329956,167.0392032499658,,,,,,167.03925970796263,None,,,NA,NA,167.03938145795837,167.04515204101335,168.03852754097898,168.0288634999888,164.61335062497528,,,,135340,001,2025-08-11_15h15.46.004,regret_experiment,2024.2.4,120.33863198661325,1,0.2,0.7,0.5,2025-08-11 15h15.57.659435 -0700,
29,0,29,up,0.32042983296560124,None,1,0.7883965829969384,None,29,0,29,0,168.03852754097898,,,,,,,,,168.02935874997638,168.03852754097898,-0.0007505000103265047,169.02269887499278,30,1,0.2,0.7,0.5,169.02295658300864,169.02875887497794,169.02875887497794,169.02875887497794,169.02875887497794,169.3566453329986,up,0.32042983296560124,None,up,0.32042983296560124,0.7,0,169.37503349996405,169.38220079097664,169.38220079097664,169.38220079097664,169.38220079097664,171.3714541249792,171.3840135000064,171.3916414999985,171.3916414999985,171.3916414999985,171.3916414999985,171.3916414999985,172.19254520797404,1,0.7883965829969384,None,1,0.7883965829969384,172.1926227909862,172.2052728330018,173.19506212498527,173.18905074999202,169.02875887497794,,,,135340,001,2025-08-11_15h15.46.004,regret_experiment,2024.2.4,120.33863198661325,1,0.2,0.7,0.5,2025-08-11 15h15.57.659435 -0700,
30,0,30,left,0.4639608329744078,None,None,,,30,0,30,0,173.19506212498527,,,,,,,,,173.1894550829893,173.19506212498527,0.0025134579627774656,174.17846320796525,31,1,0.2,0.7,0.5,174.17870895797387,174.18867987499107,174.18867987499107,174.18867987499107,174.18867987499107,174.656388583011,left,0.4639608329744078,None,left,0.4639608329744078,0.2,0,174.67615579097765,174.68333550001262,174.68333550001262,174.68333550001262,174.68333550001262,176.66176054097014,176.66205483296653,,,,,,176.66211245796876,None,,,NA,NA,176.66218933300115,176.672009041009,177.6622922079987,177.65549495798768,174.18867987499107,,,,135340,001,2025-08-11_15h15.46.004,regret_experiment,2024.2.4,120.33863198661325,1,0.2,0.7,0.5,2025-08-11 15h15.57.659435 -0700,
31,0,31,right,0.5413192909909412,None,None,,,31,0,31,0,177.6622922079987,,,,,,,,,177.6560437909793,177.6622922079987,0.00019275001250207424,178.64593399997102,32,1,0.2,0.7,0.5,178.64621266600443,178.6544893750106,178.6544893750106,178.6544893750106,178.6544893750106,179.20653541601496,right,0.5413192909909412,None,right,0.5413192909909412,0.5,1,179.22435870795744,179.23168033297407,179.23168033297407,179.23168033297407,179.23168033297407,181.21042079100152,181.21068995801033,,,,,,181.21074929099996,None,,,NA,NA,181.21082412498072,181.22257808299037,182.21287066600053,182.20632862497587,178.6544893750106,,,,135340,001,2025-08-11_15h15.46.004,regret_experiment,2024.2.4,120.33863198661325,1,0.2,0.7,0.5,2025-08-11 15h15.57.659435 -0700,
32,0,32,right,0.36777166702086106,None,None,,,32,0,32,0,182.21287066600053,,,,,,,,,182.20689483301248,182.21287066600053,0.002124958031345159,183.1956549579627,33,1,0.2,0.7,0.5,183.1959012079751,183.20532854099292,183.20532854099292,183.20532854099292,183.20532854099292,183.57965629099635,right,0.36777166702086106,None,right,0.36777166702086106,0.5,1,183.59758429101203,183.60590133297956,183.60590133297956,183.60590133297956,183.60590133297956,185.5886940410128,185.58908974996302,,,,,,185.58914791600546,None,,,NA,NA,185.5892354999669,185.59547554096207,,186.5893905829871,183.20532854099292,,,,135340,001,2025-08-11_15h15.46.004,regret_experiment,2024.2.4,120.33863198661325,1,0.2,0.7,0.5,2025-08-11 15h15.57.659435 -0700,
33,0,33,up,0.4162633749656379,None,None,,,33,0,33,0,186.5964830829762,,,,,,,,,186.58993654098595,186.5964830829762,0.0007711250218562782,187.5893467499991,34,1,0.2,0.7,0.5,187.5896150409826,187.5965999159962,187.5965999159962,187.5965999159962,187.5965999159962,188.01468558300985,up,0.4162633749656379,None,up,0.4162633749656379,0.7,1,188.03327499999432,188.0414550830028,188.0414550830028,188.0414550830028,188.0414550830028,190.0220858749817,190.02260016597575,,,,,,190.0226759579964,None,,,NA,NA,190.02277474995935,190.0289252079674,191.02993358299136,191.0225774999708,187.5965999159962,,,,135340,001,2025-08-11_15h15.46.004,regret_experiment,2024.2.4,120.33863198661325,1,0.2,0.7,0.5,2025-08-11 15h15.57.659435 -0700,
34,0,34,left,0.5517395830247551,None,None,,,34,0,34,0,191.02993358299136,,,,,,,,,191.02294950000942,191.02993358299136,0.00024237495381385088,192.02261370798806,35,1,0.2,0.7,0.5,192.02293170796474,192.0298598749796,192.0298598749796,192.0298598749796,192.0298598749796,192.59036458301125,left,0.5517395830247551,None,left,0.5517395830247551,0.2,1,192.60826995800016,192.61537549999775,192.61537549999775,192.61537549999775,192.61537549999775,194.5957283329917,194.59611179097556,,,,,,194.59616758296033,None,,,NA,NA,194.596238832979,194.60545162501512,195.5965677910135,195.58948974998202,192.0298598749796,,,,135340,001,2025-08-11_15h15.46.004,regret_experiment,2024.2.4,120.33863198661325,1,0.2,0.7,0.5,2025-08-11 15h15.57.659435 -0700,
35,0,35,right,0.40050575003260747,None,None,,,35,0,35,0,195.5965677910135,,,,,,,,,195.59005862497725,195.5965677910135,0.00040929095121100545,196.58916116598994,36,1,0.2,0.7,0.5,196.58951470797183,196.59552162501495,196.59552162501495,196.59552162501495,196.59552162501495,197.00638387497747,right,0.40050575003260747,None,right,0.40050575003260747,0.5,1,197.0253303750069,197.03268954099622,197.03268954099622,197.03268954099622,197.03268954099622,199.01044387498405,199.0107274579932,,,,,,199.01077875000192,None,,,NA,NA,199.01085579098435,199.02188337501138,200.01339408301283,200.00609295797767,196.59552162501495,,,,135340,001,2025-08-11_15h15.46.004,regret_experiment,2024.2.4,120.33863198661325,1,0.2,0.7,0.5,2025-08-11 15h15.57.659435 -0700,
36,0,36,up,0.4785952909733169,None,None,,,36,0,36,0,200.01339408301283,,,,,,,,,200.00678262498695,200.01339408301283,0.0026309160166420043,201.0064009159687,37,1,0.2,0.7,0.5,201.00673370796721,201.0135759160039,201.0135759160039,201.0135759160039,201.0135759160039,201.49364429101115,up,0.4785952909733169,None,up,0.4785952909733169,0.7,1,201.50866170797963,201.51619112497428,201.51619112497428,201.51619112497428,201.51619112497428,203.49570037500234,203.49599762499565,,,,,,203.4960499999579,None,,,NA,NA,203.4961356659769,203.5053304999601,204.49601454101503,204.48938691598596,201.0135759160039,,,,135340,001,2025-08-11_15h15.46.004,regret_experiment,2024.2.4,120.33863198661325,1,0.2,0.7,0.5,2025-08-11 15h15.57.659435 -0700,
37,0,37,left,0.5333052499918267,None,None,,,37,0,37,0,204.49601454101503,,,,,,,,,204.48985683300998,204.49601454101503,-4.2041996493935585e-05,205.48899054096546,38,1,0.2,0.7,0.5,205.4892333750031,205.49484458297957,205.49484458297957,205.49484458297957,205.49484458297957,206.03902220795862,left,0.5333052499918267,None,left,0.5333052499918267,0.2,0,206.05907620798098,206.0650696659577,206.0650696659577,206.0650696659577,206.0650696659577,208.04371433297638,208.04401608300395,,,,,,208.0440659999731,None,,,NA,NA,208.04413845797535,208.05603529099608,209.04674625000916,209.03938795800786,205.49484458297957,,,,135340,001,2025-08-11_15h15.46.004,regret_experiment,2024.2.4,120.33863198661325,1,0.2,0.7,0.5,2025-08-11 15h15.57.659435 -0700,
38,0,38,right,0.5181014999980107,None,None,,,38,0,38,0,209.04674625000916,,,,,,,,,209.04000058298698,209.04674625000916,0.00270845799241215,210.0392163330107,39,1,0.2,0.7,0.5,210.03947550000157,210.04632091597887,210.04632091597887,210.04632091597887,210.04632091597887,210.57293720799498,right,0.5181014999980107,None,right,0.5181014999980107,0.5,1,210.59136033296818,210.5991189579945,210.5991189579945,210.5991189579945,210.5991189579945,212.57854670798406,212.57901541597676,,,,,,212.57907666597748,None,,,NA,NA,212.57916754100006,212.58873079100158,213.5798007500125,213.57282699999632,210.04632091597887,,,,135340,001,2025-08-11_15h15.46.004,regret_experiment,2024.2.4,120.33863198661325,1,0.2,0.7,0.5,2025-08-11 15h15.57.659435 -0700,
39,0,39,up,0.45153320801910013,None,None,,,39,0,39,0,213.5798007500125,,,,,,,,,213.57330395799363,213.5798007500125,0.0007200829568319023,214.56256612500874,40,1,0.2,0.7,0.5,214.562842040963,214.5719769159914,214.5719769159914,214.5719769159914,214.5719769159914,215.03080270800274,up,0.45153320801910013,None,up,0.45153320801910013,0.7,1,215.04823770798976,215.05548337497748,215.05548337497748,215.05548337497748,215.05548337497748,217.0389880000148,217.03939250000985,,,,,,217.03946845798055,None,,,NA,NA,217.03955579100875,217.04549358296208,218.04690295801265,218.0395367500023,214.5719769159914,,,,135340,001,2025-08-11_15h15.46.004,regret_experiment,2024.2.4,120.33863198661325,1,0.2,0.7,0.5,2025-08-11 15h15.57.659435 -0700,
40,0,40,left,0.5342813329771161,None,None,,,40,0,40,0,218.04690295801265,,,,,,,,,218.04005374998087,218.04690295801265,0.0005665839998982847,219.0398591249832,41,1,0.2,0.7,0.5,219.04015104100108,219.04592833301285,219.04592833301285,219.04592833301285,219.04592833301285,219.5897670830018,left,0.5342813329771161,None,left,0.5342813329771161,0.2,0,219.61004141595913,219.61779950000346,219.61779950000346,219.61779950000346,219.61779950000346,221.59388724999735,221.59408849995816,,,,,,221.59412637498463,None,,,NA,NA,221.594181708002,221.60527862497838,222.59690541599412,222.5894875410013,219.04592833301285,,,,135340,001,2025-08-11_15h15.46.004,regret_experiment,2024.2.4,120.33863198661325,1,0.2,0.7,0.5,2025-08-11 15h15.57.659435 -0700,
41,0,41,up,0.34418099996400997,None,None,,,41,0,41,0,222.59690541599412,,,,,,,,,222.59012412501033,222.59690541599412,0.0027970420196652412,223.58933962497395,42,1,0.2,0.7,0.5,223.589807500015,223.59589791600592,223.59589791600592,223.59589791600592,223.59589791600592,223.94682004099013,up,0.34418099996400997,None,up,0.34418099996400997,0.7,1,223.96542016597232,223.9730040829745,223.9730040829745,223.9730040829745,223.9730040829745,225.95534250000492,225.95561974996235,,,,,,225.95566929096822,None,,,NA,NA,225.95575079100672,225.96223908296088,226.95516804099316,226.9451749160071,223.59589791600592,,,,135340,001,2025-08-11_15h15.46.004,regret_experiment,2024.2.4,120.33863198661325,1,0.2,0.7,0.5,2025-08-11 15h15.57.659435 -0700,
42,0,42,up,0.3458308330154978,None,None,,,42,0,42,0,226.95516804099316,,,,,,,,,226.94554024998797,226.95516804099316,-0.000502375012729317,227.93940820801072,43,1,0.2,0.7,0.5,227.93993887497345,227.9470071659889,227.9470071659889,227.9470071659889,227.9470071659889,228.29660266597057,up,0.3458308330154978,None,up,0.3458308330154978,0.7,1,228.31446508300724,228.32159374997718,228.32159374997718,228.32159374997718,228.32159374997718,230.30561174999457,230.30607508297544,,,,,,230.30614495801274,None,,,NA,NA,230.3062449999852,230.31199208297767,231.310709375015,231.30514966597548,227.9470071659889,,,,135340,001,2025-08-11_15h15.46.004,regret_experiment,2024.2.4,120.33863198661325,1,0.2,0.7,0.5,2025-08-11 15h15.57.659435 -0700,
43,0,43,left,0.31855654099490494,None,None,,,43,0,43,0,231.310709375015,,,,,,,,,231.3055099999765,231.310709375015,-0.0006650839932262897,232.29547970800195,44,1,0.2,0.7,0.5,232.29573979100678,232.30520349997096,232.30520349997096,232.30520349997096,232.30520349997096,232.63002562499605,left,0.31855654099490494,None,left,0.31855654099490494,0.2,0,232.6513383749989,232.6589787499979,232.6589787499979,232.6589787499979,232.6589787499979,234.6390607499634,234.63950270798523,,,,,,234.6395790830138,None,,,NA,NA,234.63967616599984,234.64581337501295,235.64608370797941,235.63948029099265,232.30520349997096,,,,135340,001,2025-08-11_15h15.46.004,regret_experiment,2024.2.4,120.33863198661325,1,0.2,0.7,0.5,2025-08-11 15h15.57.659435 -0700,
44,0,44,right,0.5860069590271451,None,None,,,44,0,44,0,235.64608370797941,,,,,,,,,235.64002150000306,235.64608370797941,0.00042629201197996736,236.63209458300844,45,1,0.2,0.7,0.5,236.63230941595975,236.63834504096303,236.63834504096303,236.63834504096303,236.63834504096303,237.22869083296973,right,0.5860069590271451,None,right,0.5860069590271451,0.5,0,237.2476698330138,237.25598349998472,237.25598349998472,237.25598349998472,237.25598349998472,239.23920291598188,239.23963116598316,,,,,,239.23969258298166,None,,,NA,NA,239.23978662496665,239.24601599999005,240.24588762497297,240.23909879097482,236.63834504096303,,,,135340,001,2025-08-11_15h15.46.004,regret_experiment,2024.2.4,120.33863198661325,1,0.2,0.7,0.5,2025-08-11 15h15.57.659435 -0700,
45,0,45,left,0.5182772919652052,None,None,,,45,0,45,0,240.24588762497297,,,,,,,,,240.23964783299016,240.24588762497297,-8.029199671000242e-05,241.23937704099808,46,1,0.2,0.7,0.5,241.23974991601426,241.2461527909618,241.2461527909618,241.2461527909618,241.2461527909618,241.77317933295853,left,0.5182772919652052,None,left,0.5182772919652052,0.2,0,241.79281391599216,241.80012433300726,241.80012433300726,241.80012433300726,241.80012433300726,243.7784376249765,243.77872025000397,,,,,,243.77877216599882,None,,,NA,NA,243.77884483296657,243.78862875001505,244.77925787499407,244.7725956659997,241.2461527909618,,,,135340,001,2025-08-11_15h15.46.004,regret_experiment,2024.2.4,120.33863198661325,1,0.2,0.7,0.5,2025-08-11 15h15.57.659435 -0700,
46,0,46,up,0.3443417919916101,None,None,,,46,0,46,0,244.77925787499407,,,,,,,,,244.7730051659746,244.77925787499407,0.0004910419811494648,245.76226904097712,47,1,0.2,0.7,0.5,245.76252083299914,245.77221587498207,245.77221587498207,245.77221587498207,245.77221587498207,246.12406112498138,up,0.3443417919916101,None,up,0.3443417919916101,0.7,0,246.14310858299723,246.1501011659857,246.1501011659857,246.1501011659857,246.1501011659857,248.1288622500142,248.12915112497285,,,,,,248.12920166598633,None,,,NA,NA,248.12927516596392,248.1389062500093,249.1289541249862,249.1224461660022,245.77221587498207,,,,135340,001,2025-08-11_15h15.46.004,regret_experiment,2024.2.4,120.33863198661325,1,0.2,0.7,0.5,2025-08-11 15h15.57.659435 -0700,
47,0,47,right,0.31820879195583984,None,None,,,47,0,47,0,249.1289541249862,,,,,,,,,249.12286566599505,249.1289541249862,-0.0002381670055910945,250.1123956659576,48,1,0.2,0.7,0.5,250.11270437500207,250.12168383301469,250.12168383301469,250.12168383301469,250.12168383301469,250.4454402079573,right,0.31820879195583984,None,right,0.31820879195583984,0.5,1,250.46377295796992,250.47213570796885,250.47213570796885,250.47213570796885,250.47213570796885,252.45546395797282,252.45590758300386,,,,,,252.45599558297545,None,,,NA,NA,252.45609158300795,252.4623022910091,253.4608253329643,253.4551729579689,250.12168383301469,,,,135340,001,2025-08-11_15h15.46.004,regret_experiment,2024.2.4,120.33863198661325,1,0.2,0.7,0.5,2025-08-11 15h15.57.659435 -0700,
48,0,48,left,0.6049181660055183,None,None,,,48,0,48,0,253.4608253329643,,,,,,,,,253.4555770829902,253.4608253329643,-0.0004456670139916241,254.44553458300652,49,1,0.2,0.7,0.5,254.44578766595805,254.45524779096013,254.45524779096013,254.45524779096013,254.45524779096013,255.0631772080087,left,0.6049181660055183,None,left,0.6049181660055183,0.2,0,255.0821326659643,255.0898077909951,255.0898077909951,255.0898077909951,255.0898077909951,257.0719437910011,257.0722170000081,,,,,,257.07226912496844,None,,,NA,NA,257.07235795800807,257.0776892079739,258.07178470800864,258.0615824999986,254.45524779096013,,,,135340,001,2025-08-11_15h15.46.004,regret_experiment,2024.2.4,120.33863198661325,1,0.2,0.7,0.5,2025-08-11 15h15.57.659435 -0700,
49,0,49,up,1.1326399170211516,None,None,,,49,0,49,0,258.07178470800864,,,,,,,,,258.0619106249651,258.07178470800864,-0.0004991250461898744,259.05668604100356,50,1,0.2,0.7,0.5,259.0569345409749,259.0631542080082,259.0631542080082,259.0631542080082,259.0631542080082,260.2064503749716,up,1.1326399170211516,None,up,1.1326399170211516,0.7,1,260.22464129095897,260.2321202909807,260.2321202909807,260.2321202909807,260.2321202909807,262.2110313749872,262.2114513749839,,,,,,262.21153745800257,None,,,NA,NA,262.2118606250151,262.22209770797053,263.2102612910094,263.20493654097663,259.0631542080082,,,,135340,001,2025-08-11_15h15.46.004,regret_experiment,2024.2.4,120.33863198661325,1,0.2,0.7,0.5,2025-08-11 15h15.57.659435 -0700,
50,0,50,right,0.5136312500108033,None,None,,,50,0,50,0,263.2102612910094,,,,,,,,,263.20536937500583,263.2102612910094,0.009781458007637411,264.2058609999949,51,1,0.2,0.7,0.5,264.20639070798643,264.21307433297625,264.21307433297625,264.21307433297625,264.21307433297625,264.7325087499921,right,0.5136312500108033,None,right,0.5136312500108033,0.5,0,264.7506104159984,264.76452816597885,264.76452816597885,264.76452816597885,264.76452816597885,266.7389063749579,266.7393105829833,,,,,,266.73939574998803,None,,,NA,NA,266.739567874989,266.7450623330078,267.73877695796546,267.72817424999084,264.21307433297625,,,,135340,001,2025-08-11_15h15.46.004,regret_experiment,2024.2.4,120.33863198661325,1,0.2,0.7,0.5,2025-08-11 15h15.57.659435 -0700,
51,0,51,left,0.40453220903873444,None,None,,,51,0,51,0,267.73877695796546,,,,,,,,,267.7290857079788,267.73877695796546,-0.0005872920155525208,268.72226962499553,52,1,0.2,0.7,0.5,268.7225349160144,268.72854533296777,268.72854533296777,268.72854533296777,268.72854533296777,269.14061883301474,left,0.40453220903873444,None,left,0.40453220903873444,0.2,0,269.16224033298204,269.17257916601375,269.17257916601375,269.17257916601375,269.17257916601375,271.1437358749681,271.143968749966,,,,,,271.14399391599,None,,,NA,NA,271.1440362909925,271.1542563330149,272.1442123329616,272.1389084159746,268.72854533296777,,,,135340,001,2025-08-11_15h15.46.004,regret_experiment,2024.2.4,120.33863198661325,1,0.2,0.7,0.5,2025-08-11 15h15.57.659435 -0700,
52,0,52,left,0.5288479589507915,None,None,,,52,0,52,0,272.1442123329616,,,,,,,,,272.1393004159909,272.1442123329616,0.00024829100584611297,273.1270592910005,53,1,0.2,0.7,0.5,273.1276099579991,273.1384967910126,273.1384967910126,273.1384967910126,273.1384967910126,273.6749325830024,left,0.5288479589507915,None,left,0.5288479589507915,0.2,1,273.6939374579815,273.7061996249831,273.7061996249831,273.7061996249831,273.7061996249831,275.6770112499944,275.6774006249616,,,,,,275.67746074998286,None,,,NA,NA,275.6775397909805,275.6890620829654,276.6808130829595,276.6729810409597,273.1384967910126,,,,135340,001,2025-08-11_15h15.46.004,regret_experiment,2024.2.4,120.33863198661325,1,0.2,0.7,0.5,2025-08-11 15h15.57.659435 -0700,
53,0,53,right,0.3667490840307437,None,None,,,53,0,53,0,276.6808130829595,,,,,,,,,276.67380241601495,276.6808130829595,0.0033751250011846423,277.6722331249621,54,1,0.2,0.7,0.5,277.67248262499925,277.67837254097685,277.67837254097685,277.67837254097685,277.67837254097685,278.0476090409793,right,0.3667490840307437,None,right,0.3667490840307437,0.5,1,278.06607287499355,278.0734508750029,278.0734508750029,278.0734508750029,278.0734508750029,280.05532470799517,280.05558824999025,,,,,,280.0556488750153,None,,,NA,NA,280.0557271660073,280.0608472909662,281.0553446249687,281.04509329097345,277.67837254097685,,,,135340,001,2025-08-11_15h15.46.004,regret_experiment,2024.2.4,120.33863198661325,1,0.2,0.7,0.5,2025-08-11 15h15.57.659435 -0700,
54,0,54,left,0.33470429200679064,None,None,,,54,0,54,0,281.0553446249687,,,,,,,,,281.04563445795793,281.0553446249687,-0.0003017500275745988,282.03963433299214,55,1,0.2,0.7,0.5,282.0398878749693,282.0464948329609,282.0464948329609,282.0464948329609,282.0464948329609,282.39199983299477,left,0.33470429200679064,None,left,0.33470429200679064,0.2,0,282.41303991596214,282.42145937500754,282.42145937500754,282.42145937500754,282.42145937500754,284.39570020796964,284.3959862909978,,,,,,284.39603591599735,None,,,NA,NA,284.39610820799135,284.40557108301437,285.39413891598815,285.3888520000037,282.0464948329609,,,,135340,001,2025-08-11_15h15.46.004,regret_experiment,2024.2.4,120.33863198661325,1,0.2,0.7,0.5,2025-08-11 15h15.57.659435 -0700,
55,0,55,right,0.31513620901387185,None,None,,,55,0,55,0,285.39413891598815,,,,,,,,,285.38938908296404,285.39413891598815,0.008677624980919063,286.3796794160153,56,1,0.2,0.7,0.5,286.3803781250026,286.3944647499593,286.3944647499593,286.3944647499593,286.3944647499593,286.7200550409616,right,0.31513620901387185,None,right,0.31513620901387185,0.5,1,286.74122537497897,286.7549931659596,286.7549931659596,286.7549931659596,286.7549931659596,288.72234370798105,288.7228989999858,,,,,,288.7230087079806,None,,,NA,NA,288.72496266599046,288.73070491600083,289.7306141249719,289.7224797079689,286.3874852079898,,,,135340,001,2025-08-11_15h15.46.004,regret_experiment,2024.2.4,120.33863198661325,1,0.2,0.7,0.5,2025-08-11 15h15.57.659435 -0700,
56,0,56,up,0.563059542037081,None,None,,,56,0,56,0,289.7306141249719,,,,,,,,,289.7229121249984,289.7306141249719,-0.00011687498772516847,290.72298895800486,57,1,0.2,0.7,0.5,290.7233128749649,290.72917695797514,290.72917695797514,290.72917695797514,290.72917695797514,291.29459237499395,up,0.563059542037081,None,up,0.563059542037081,0.7,1,291.31852904096013,291.32851087499876,291.32851087499876,291.32851087499876,291.32851087499876,293.2954345829785,293.2958491659956,,,,,,293.2958991249907,None,,,NA,NA,293.2960278330138,293.30534224997973,294.29510987497633,294.2891715000151,290.72917695797514,,,,135340,001,2025-08-11_15h15.46.004,regret_experiment,2024.2.4,120.33863198661325,1,0.2,0.7,0.5,2025-08-11 15h15.57.659435 -0700,
57,0,57,up,0.2596224169828929,None,None,,,57,0,57,0,294.29510987497633,,,,,,,,,294.2895357499947,294.29510987497633,-0.0008285000221803784,295.2787384580006,58,1,0.2,0.7,0.5,295.2789890409913,295.2887174159987,295.2887174159987,295.2887174159987,295.2887174159987,295.5570382080041,up,0.2596224169828929,None,up,0.2596224169828929,0.7,1,295.5752695829724,295.5833579999744,295.5833579999744,295.5833579999744,295.5833579999744,297.5594549999805,297.55962099996395,,,,,,297.5596427079872,None,,,NA,NA,297.5596789160045,297.57176154101035,298.5610187079874,298.55564483295893,295.2887174159987,,,,135340,001,2025-08-11_15h15.46.004,regret_experiment,2024.2.4,120.33863198661325,1,0.2,0.7,0.5,2025-08-11 15h15.57.659435 -0700,
58,0,58,right,0.2871994160232134,None,None,,,58,0,58,0,298.5610187079874,,,,,,,,,298.55601683299756,298.5610187079874,0.0013990000006742775,299.54590312496293,59,1,0.2,0.7,0.5,299.5462223329814,299.55423804098973,299.55423804098973,299.55423804098973,299.55423804098973,299.84494779095985,right,0.2871994160232134,None,right,0.2871994160232134,0.5,0,299.8670340409735,299.87550608301535,299.87550608301535,299.87550608301535,299.87550608301535,301.8557007909985,301.85618937498657,,,,,,301.85626087500714,None,,,NA,NA,301.8563538749586,301.86253383295843,302.8639666659874,302.8561383750057,299.55423804098973,,,,135340,001,2025-08-11_15h15.46.004,regret_experiment,2024.2.4,120.33863198661325,1,0.2,0.7,0.5,2025-08-11 15h15.57.659435 -0700,
59,0,59,left,0.49387654196470976,None,None,,,59,0,59,0,302.8639666659874,,,,,,,,,302.85681299999123,302.8639666659874,0.0005292909918352962,303.8562054159702,60,1,0.2,0.7,0.5,303.8565424159751,303.86342191597214,303.86342191597214,303.86342191597214,303.86342191597214,304.36173266597325,left,0.49387654196470976,None,left,0.49387654196470976,0.2,0,304.3814149579848,304.39069087500684,304.39069087500684,304.39069087500684,304.39069087500684,306.37140541599365,306.3716569580138,,,,,,306.37170625000726,None,,,NA,NA,306.37176741601434,306.3757844159845,307.40539374999935,307.361248583009,303.86342191597214,,,,135340,001,2025-08-11_15h15.46.004,regret_experiment,2024.2.4,120.33863198661325,1,0.2,0.7,0.5,2025-08-11 15h15.57.659435 -0700,
,,,,,,,,,,,,,,,,,,,,,,,,,,,,,,,,,,,,,,,,,,,,,,,,,,,,,,,,,,,,,,,,,,,N/A,307.39697374997195,307.40539374999935,,,,,,,,,,,,
