thisN,thisTrialN,thisRepN,key_resp_1.keys,key_resp_1.rt,key_resp_1.duration,regret_key.keys,regret_key.rt,regret_key.duration,trials.thisRepN,trials.thisTrialN,trials.thisN,trials.thisIndex,thisRow.t,notes,begin_exp.started,begin.started,advance_key.started,begin_exp.stopped,advance_key.keys,advance_key.rt,advance_key.duration,Fixation.started,fixcross.started,etRecord.started,Fixation.stopped,trial_num,participant_cond,prob_left,prob_up,prob_right,Choice.started,tree1_img.started,tree2_img.started,tree3_img.started,key_resp_1.started,Choice.stopped,trials.key_resp_1.keys,trials.key_resp_1.rt,trials.key_resp_1.duration,choice_key,choice_rt,choice_prob,points,Feedback.started,appleImage.started,tree1.started,tree2.started,tree3.started,Feedback.stopped,regret_rating,regret_rt,RegretRating.started,RegretRating.stopped,trials.regret_key.keys,ITI.started,blank_screen.started,blank_screen.stopped,ITI.stopped,fixcross.stopped,appleImage.stopped,tree1.stopped,tree2.stopped,tree3.stopped,regret_scale.started,regret_key.started,rtree1.started,rtree2.started,rtree3.started,trials.regret_key.rt,trials.regret_key.duration,avg_regret,EndScreen.started,end_display.started,participant,session,date,expName,expVersion,psychopyVersion,frameRate,participant_cond,prob_left,prob_up,prob_right,expStart,
,,,,,,,,,,,,,,,0.005342958960682154,0.01482895901426673,0.01482895901426673,1.3841503341682255,space,1.3349857500288635,None,,,,,,2,0.2,0.5,0.7,,,,,,,,,,,,,,,,,,,,,,,,,,,,,,,,,,,,,,,,,,,,33604,001,2025-11-03_14h24.38.158,regret_experiment,,2025.1.1,74.62303713747534,2,0.2,0.5,0.7,2025-11-03 14h24.47.792096 -0800,
0,0,0,up,1.2260271250270307,None,None,,,0,0,0,0,1.8990704591851681,,,,,,,,,1.385104584041983,1.8990704591851681,0.0009398330003023148,2.3911790000274777,1,2,0.2,0.5,0.7,2.39157708408311,2.404265250079334,2.404265250079334,2.404265250079334,2.404265250079334,3.632399084046483,up,1.2260271250270307,None,up,1.2260271250270307,0.5,0,3.651263709180057,3.6723467921838164,3.6723467921838164,3.6723467921838164,3.6723467921838164,5.64364124997519,NA,NA,5.644039000151679,5.644070917041972,None,5.644134917063639,5.655096500180662,6.657984750112519,6.643476834055036,,,,,,,,,,,,,,,,33604,001,2025-11-03_14h24.38.158,regret_experiment,,2025.1.1,74.62303713747534,2,0.2,0.5,0.7,2025-11-03 14h24.47.792096 -0800,
1,0,1,right,0.9733964160550386,None,None,,,1,0,1,0,6.657984750112519,,,,,,,,,6.643944917013869,6.657984750112519,-0.00014533288776874542,7.64435450010933,2,2,0.2,0.5,0.7,7.644711375003681,7.657304625026882,7.657304625026882,7.657304625026882,7.657304625026882,8.633027834119275,right,0.9733964160550386,None,right,0.9733964160550386,0.7,1,8.646801917115226,8.649869000073522,8.649869000073522,8.649869000073522,8.649869000073522,10.643557625124231,NA,NA,10.64383904216811,10.643870749976486,None,10.64392750011757,10.656812499975786,,11.643994583981112,,,,,,,,,,,,,,,,33604,001,2025-11-03_14h24.38.158,regret_experiment,,2025.1.1,74.62303713747534,2,0.2,0.5,0.7,2025-11-03 14h24.47.792096 -0800,
2,0,2,left,1.269690915942192,None,None,,,2,0,2,0,11.657624084036797,,,,,,,,,11.6444485001266,11.657624084036797,0.0005594170652329922,12.644042792031541,3,2,0.2,0.5,0.7,12.644353667041287,12.657052667113021,12.657052667113021,12.657052667113021,12.657052667113021,13.931864334037527,left,1.269690915942192,None,left,1.269690915942192,0.2,0,13.945573500124738,13.949276459170505,13.949276459170505,13.949276459170505,13.949276459170505,15.935030875029042,NA,NA,15.935555916978046,15.935587625019252,None,15.935658334055915,15.951374666998163,,16.936283792136237,12.657052667113021,,,,,,,,,,,,,,,33604,001,2025-11-03_14h24.38.158,regret_experiment,,2025.1.1,74.62303713747534,2,0.2,0.5,0.7,2025-11-03 14h24.47.792096 -0800,
3,0,3,up,0.566639041993767,None,None,,,3,0,3,0,16.950024584075436,,,,,,,,,16.936805167002603,16.950024584075436,0.0011951660271734,17.935749625088647,4,2,0.2,0.5,0.7,17.9360619999934,17.9505260840524,17.9505260840524,17.9505260840524,17.9505260840524,18.52332575013861,up,0.566639041993767,None,up,0.566639041993767,0.5,1,18.535532459151,18.538325709057972,18.538325709057972,18.538325709057972,18.538325709057972,20.523833584040403,NA,NA,20.524167499970645,20.52421341696754,None,20.524288709042594,20.53693791711703,21.537557834060863,21.523716249968857,17.9505260840524,,,,,,,,,,,,,,,33604,001,2025-11-03_14h24.38.158,regret_experiment,,2025.1.1,74.62303713747534,2,0.2,0.5,0.7,2025-11-03 14h24.47.792096 -0800,
4,0,4,up,1.0288161251228303,None,None,,,4,0,4,0,21.537557834060863,,,,,,,,,21.524167417082936,21.537557834060863,-7.02498946338892e-05,22.524227084126323,5,2,0.2,0.5,0.7,22.524568208958954,22.536719375057146,22.536719375057146,22.536719375057146,22.536719375057146,23.577256791992113,up,1.0288161251228303,None,up,1.0288161251228303,0.5,1,23.589072584174573,23.594452999997884,23.594452999997884,23.594452999997884,23.594452999997884,25.577259834157303,NA,NA,25.577653125161305,25.57768320897594,None,25.577764250105247,25.59080016706139,26.590688292169943,26.575929834041744,22.536719375057146,25.59080016706139,25.59080016706139,25.59080016706139,25.59080016706139,,,,,,,,,,,33604,001,2025-11-03_14h24.38.158,regret_experiment,,2025.1.1,74.62303713747534,2,0.2,0.5,0.7,2025-11-03 14h24.47.792096 -0800,
5,0,5,up,0.6551030001137406,None,None,,,5,0,5,0,26.590688292169943,,,,,,,,,26.57640958414413,26.590688292169943,0.01300687505863607,27.577154583996162,6,2,0.2,0.5,0.7,27.577487917151302,27.590895834146068,27.590895834146068,27.590895834146068,27.590895834146068,28.259182792156935,up,0.6551030001137406,None,up,0.6551030001137406,0.5,1,28.2713755001314,28.274122750153765,28.274122750153765,28.274122750153765,28.274122750153765,30.257812709081918,NA,NA,30.25809304206632,30.258121125167236,None,30.258187292143703,30.27045158413239,31.268847209168598,31.25837783399038,27.590895834146068,30.27045158413239,30.27045158413239,30.27045158413239,30.27045158413239,,,,,,,,,,,33604,001,2025-11-03_14h24.38.158,regret_experiment,,2025.1.1,74.62303713747534,2,0.2,0.5,0.7,2025-11-03 14h24.47.792096 -0800,
6,0,6,up,0.9924149168655276,None,None,,,6,0,6,0,31.268847209168598,,,,,,,,,31.258799958974123,31.268847209168598,0.000659832963719964,32.25712537509389,7,2,0.2,0.5,0.7,32.25743604218587,32.26894462504424,32.26894462504424,32.26894462504424,32.26894462504424,33.270343584008515,up,0.9924149168655276,None,up,0.9924149168655276,0.5,1,33.28232108405791,33.28516216715798,33.28516216715798,33.28516216715798,33.28516216715798,35.270717167062685,NA,NA,35.27101749996655,35.27104575000703,None,35.27110412507318,35.28272062516771,,36.27120941714384,32.26894462504424,35.28272062516771,35.28272062516771,35.28272062516771,35.28272062516771,,,,,,,,,,,33604,001,2025-11-03_14h24.38.158,regret_experiment,,2025.1.1,74.62303713747534,2,0.2,0.5,0.7,2025-11-03 14h24.47.792096 -0800,
7,0,7,up,0.42718266719020903,None,None,,,7,0,7,0,36.28362008417025,,,,,,,,,36.27170329215005,36.28362008417025,0.0006410419009625912,37.27012512506917,8,2,0.2,0.5,0.7,37.270438875071704,37.28310550004244,37.28310550004244,37.28310550004244,37.28310550004244,37.71234383410774,up,0.42718266719020903,None,up,0.42718266719020903,0.5,1,37.725035125156865,37.72872512508184,37.72872512508184,37.72872512508184,37.72872512508184,39.722117125056684,NA,NA,39.72254700004123,39.722590249963105,None,39.722663667052984,39.7374500001315,,40.724509209161624,37.28310550004244,,,,,,,,,,,,,,,33604,001,2025-11-03_14h24.38.158,regret_experiment,,2025.1.1,74.62303713747534,2,0.2,0.5,0.7,2025-11-03 14h24.47.792096 -0800,
8,0,8,up,0.6456422919873148,None,None,,,8,0,8,0,40.73806795896962,,,,,,,,,40.72498504212126,40.73806795896962,0.0023702499456703663,41.723264834145084,9,2,0.2,0.5,0.7,41.72365612513386,41.736266541993245,41.736266541993245,41.736266541993245,41.736266541993245,42.39057495910674,up,0.6456422919873148,None,up,0.6456422919873148,0.5,0,42.403872875031084,42.40654570912011,42.40654570912011,42.40654570912011,42.40654570912011,44.38946475018747,NA,NA,44.38980112504214,44.389831042150036,None,44.389918625121936,44.40315708401613,,45.39077275013551,,44.40315708401613,44.40315708401613,44.40315708401613,44.40315708401613,,,,,,,,,,,33604,001,2025-11-03_14h24.38.158,regret_experiment,,2025.1.1,74.62303713747534,2,0.2,0.5,0.7,2025-11-03 14h24.47.792096 -0800,
9,0,9,right,0.8410187910776585,None,None,,,9,0,9,0,45.4034583340399,,,,,,,,,45.39125770912506,45.4034583340399,0.0013869581744074821,46.39080437505618,10,2,0.2,0.5,0.7,46.39112483407371,46.40441137505695,46.40441137505695,46.40441137505695,46.40441137505695,47.25681041716598,right,0.8410187910776585,None,right,0.8410187910776585,0.7,0,47.26976625015959,47.272925292141736,47.272925292141736,47.272925292141736,47.272925292141736,49.257949584163725,NA,NA,49.25847270898521,49.25850791716948,None,49.25858529214747,49.270667999982834,50.2690700001549,50.25823812512681,,,,,,,,,,,,,,,,33604,001,2025-11-03_14h24.38.158,regret_experiment,,2025.1.1,74.62303713747534,2,0.2,0.5,0.7,2025-11-03 14h24.47.792096 -0800,
10,0,10,up,0.38502320903353393,None,None,,,10,0,10,0,50.2690700001549,,,,,,,,,50.25866579217836,50.2690700001549,0.000133083900436759,51.255961375078186,11,2,0.2,0.5,0.7,51.25627700006589,51.27165683405474,51.27165683405474,51.27165683405474,51.27165683405474,51.65832899999805,up,0.38502320903353393,None,up,0.38502320903353393,0.5,1,51.670963500160724,51.6737130000256,51.6737130000256,51.6737130000256,51.6737130000256,53.6574101250153,NA,NA,53.65764550003223,53.65767162502743,None,53.6577286249958,53.67073054215871,54.6695924999658,54.65788191696629,51.27165683405474,53.67073054215871,53.67073054215871,53.67073054215871,53.67073054215871,,,,,,,,,,,33604,001,2025-11-03_14h24.38.158,regret_experiment,,2025.1.1,74.62303713747534,2,0.2,0.5,0.7,2025-11-03 14h24.47.792096 -0800,
11,0,11,up,0.6304440828971565,None,None,,,11,0,11,0,54.6695924999658,,,,,,,,,54.65835845912807,54.6695924999658,0.0006726670544594526,55.656359542161226,12,2,0.2,0.5,0.7,55.65655333409086,55.670917459065095,55.670917459065095,55.670917459065095,55.670917459065095,56.31141041708179,up,0.6304440828971565,None,up,0.6304440828971565,0.5,0,56.325711167184636,56.32897616713308,56.32897616713308,56.32897616713308,56.32897616713308,58.32374683418311,NA,NA,58.32411541696638,58.324145999969915,None,58.32421875,58.33669154206291,59.33777662506327,59.32229616702534,55.670917459065095,,,,,,,,,,,,,,,33604,001,2025-11-03_14h24.38.158,regret_experiment,,2025.1.1,74.62303713747534,2,0.2,0.5,0.7,2025-11-03 14h24.47.792096 -0800,
12,0,12,up,0.6411420409567654,None,None,,,12,0,12,0,59.33777662506327,,,,,,,,,59.32276250002906,59.33777662506327,0.013640707824379206,60.32480225013569,13,2,0.2,0.5,0.7,60.32524154195562,60.33691070904024,60.33691070904024,60.33691070904024,60.33691070904024,60.98002670914866,up,0.6411420409567654,None,up,0.6411420409567654,0.5,1,60.99182070908137,60.994441834045574,60.994441834045574,60.994441834045574,60.994441834045574,62.99020791705698,NA,NA,62.990679166978225,62.99070795904845,None,62.99077558401041,63.002380084013566,,63.990816459059715,,,,,,,,,,,,,,,,33604,001,2025-11-03_14h24.38.158,regret_experiment,,2025.1.1,74.62303713747534,2,0.2,0.5,0.7,2025-11-03 14h24.47.792096 -0800,
13,0,13,up,0.37502550007775426,None,None,,,13,0,13,0,64.00324995908886,,,,,,,,,63.99129258398898,64.00324995908886,0.0005650829989463091,64.98903258400969,14,2,0.2,0.5,0.7,64.9892514590174,65.00167145906016,65.00167145906016,65.00167145906016,65.00167145906016,65.37899545906112,up,0.37502550007775426,None,up,0.37502550007775426,0.5,1,65.39233258413151,65.39514845912345,65.39514845912345,65.39514845912345,65.39514845912345,67.39066891698167,NA,NA,67.3910128751304,67.39104270911776,None,67.39110875013284,67.4019792091567,68.40487120905891,68.39134100009687,65.00167145906016,,,,,,,,,,,,,,,33604,001,2025-11-03_14h24.38.158,regret_experiment,,2025.1.1,74.62303713747534,2,0.2,0.5,0.7,2025-11-03 14h24.47.792096 -0800,
14,0,14,up,0.8729890000540763,None,None,,,14,0,14,0,68.40487120905891,,,,,,,,,68.39177266717888,68.40487120905891,0.0007107078563421965,69.39078708412126,15,2,0.2,0.5,0.7,69.3910894591827,69.40397866698913,69.40397866698913,69.40397866698913,69.40397866698913,70.28462791698985,up,0.8729890000540763,None,up,0.8729890000540763,0.5,1,70.29615316702984,70.29886970901862,70.29886970901862,70.29886970901862,70.29886970901862,72.28249770915136,NA,NA,72.28283212496899,72.28286929195747,None,72.28294091718271,72.29790575010702,,73.28376500005834,69.40397866698913,72.29790575010702,72.29790575010702,72.29790575010702,72.29790575010702,,,,,,,,,,,33604,001,2025-11-03_14h24.38.158,regret_experiment,,2025.1.1,74.62303713747534,2,0.2,0.5,0.7,2025-11-03 14h24.47.792096 -0800,
15,0,15,up,0.588421416003257,None,None,,,15,0,15,0,73.29680604208261,,,,,,,,,73.28423324995674,73.29680604208261,0.0013423750642687082,74.28339912509546,16,2,0.2,0.5,0.7,74.28380075003952,74.29706662497483,74.29706662497483,74.29706662497483,74.29706662497483,74.89590933406726,up,0.588421416003257,None,up,0.588421416003257,0.5,1,74.90762016712688,74.91050674999133,74.91050674999133,74.91050674999133,74.91050674999133,76.89725566701964,NA,NA,76.89760866714641,76.89763975003734,None,76.89770783414133,76.91009416710585,,77.8980229170993,,,,,,,,,,,,,,,,33604,001,2025-11-03_14h24.38.158,regret_experiment,,2025.1.1,74.62303713747534,2,0.2,0.5,0.7,2025-11-03 14h24.47.792096 -0800,
16,0,16,up,0.6283485831227154,None,None,,,16,0,16,0,77.91030104202218,,,,,,,,,77.89851633412763,77.91030104202218,0.0008544998709112406,78.89743370912038,17,2,0.2,0.5,0.7,78.89772929204628,78.90877858409658,78.90877858409658,78.90877858409658,78.90877858409658,79.53910195897333,up,0.6283485831227154,None,up,0.6283485831227154,0.5,0,79.5525630840566,79.55625266698189,79.55625266698189,79.55625266698189,79.55625266698189,81.55090599996038,NA,NA,81.55126995895989,81.5513009170536,None,81.55137254204601,81.56284958403558,82.56362175010145,82.55049595911987,78.90877858409658,,,,,,,,,,,,,,,33604,001,2025-11-03_14h24.38.158,regret_experiment,,2025.1.1,74.62303713747534,2,0.2,0.5,0.7,2025-11-03 14h24.47.792096 -0800,
17,0,17,up,0.4978121251333505,None,None,,,17,0,17,0,82.56362175010145,,,,,,,,,82.55092504201457,82.56362175010145,-0.00039841700345277786,83.55104491696693,18,2,0.2,0.5,0.7,83.55144612514414,83.56341275013983,83.56341275013983,83.56341275013983,83.56341275013983,84.07046787510626,up,0.4978121251333505,None,up,0.4978121251333505,0.5,0,84.08381458418444,84.08765379199758,84.08765379199758,84.08765379199758,84.08765379199758,86.07110966718756,NA,NA,86.07142979209311,86.07146058417857,None,86.07153100008145,86.08452462498099,87.08220795914531,87.0706717921421,83.56341275013983,,,,,,,,,,,,,,,33604,001,2025-11-03_14h24.38.158,regret_experiment,,2025.1.1,74.62303713747534,2,0.2,0.5,0.7,2025-11-03 14h24.47.792096 -0800,
18,0,18,up,0.3739649588242173,None,None,,,18,0,18,0,87.08220795914531,,,,,,,,,87.07115533412434,87.08220795914531,-0.0003292919136583805,88.07142375013791,19,2,0.2,0.5,0.7,88.07174958405085,88.08415058418177,88.08415058418177,88.08415058418177,88.08415058418177,88.45978662511334,up,0.3739649588242173,None,up,0.3739649588242173,0.5,0,88.47257216717117,88.47531379200518,88.47531379200518,88.47531379200518,88.47531379200518,90.47150433412753,NA,NA,90.47189041716047,90.47193291713484,None,90.47200791700743,90.4842146250885,91.48326091701165,91.47130008414388,88.08415058418177,,,,,,,,,,,,,,,33604,001,2025-11-03_14h24.38.158,regret_experiment,,2025.1.1,74.62303713747534,2,0.2,0.5,0.7,2025-11-03 14h24.47.792096 -0800,
19,0,19,left,0.46697750012390316,None,None,,,19,0,19,0,91.48326091701165,,,,,,,,,91.47176070907153,91.48326091701165,-0.00019970815628767014,92.47201879206114,20,2,0.2,0.5,0.7,92.47233325010166,92.48280579200946,92.48280579200946,92.48280579200946,92.48280579200946,92.95183316711336,left,0.46697750012390316,None,left,0.46697750012390316,0.2,0,92.96526629198343,92.96790945902467,92.96790945902467,92.96790945902467,92.96790945902467,94.95170129206963,NA,NA,94.95201254216954,94.95204012515023,None,94.95211758418009,94.96339683397673,95.96376225003041,95.95033120899461,92.48280579200946,94.96339683397673,94.96339683397673,94.96339683397673,94.96339683397673,,,,,,,,,,,33604,001,2025-11-03_14h24.38.158,regret_experiment,,2025.1.1,74.62303713747534,2,0.2,0.5,0.7,2025-11-03 14h24.47.792096 -0800,
20,0,20,right,0.33301608287729323,None,None,,,20,0,20,0,95.96376225003041,,,,,,,,,95.95084158401005,95.96376225003041,0.011717625195160508,96.9507820000872,21,2,0.2,0.5,0.7,96.95111737516709,96.9631240000017,96.9631240000017,96.9631240000017,96.9631240000017,97.29843399999663,right,0.33301608287729323,None,right,0.33301608287729323,0.7,0,97.31180720916018,97.31447170907632,97.31447170907632,97.31447170907632,97.31447170907632,99.29788929200731,NA,NA,99.29821795900352,99.29824437503703,None,99.298309792066,99.31036170898005,100.30999262514524,100.29713083407842,96.9631240000017,99.31036170898005,99.31036170898005,99.31036170898005,99.31036170898005,,,,,,,,,,,33604,001,2025-11-03_14h24.38.158,regret_experiment,,2025.1.1,74.62303713747534,2,0.2,0.5,0.7,2025-11-03 14h24.47.792096 -0800,
21,0,21,left,0.6705060000531375,None,None,,,21,0,21,0,100.30999262514524,,,,,,,,,100.29756270907819,100.30999262514524,-0.0006987499073147774,101.29772699996829,22,2,0.2,0.5,0.7,101.29805908398703,101.31059266696684,101.31059266696684,101.31059266696684,101.31059266696684,101.99096120917238,left,0.6705060000531375,None,left,0.6705060000531375,0.2,0,102.00393733405508,102.00661229202524,102.00661229202524,102.00661229202524,102.00661229202524,104.0047199591063,NA,NA,104.00509066716768,104.00513216713443,None,104.00520074996166,104.01514558400959,105.01668691704981,105.0034357921686,101.31059266696684,,,,,,,,,,,,,,,33604,001,2025-11-03_14h24.38.158,regret_experiment,,2025.1.1,74.62303713747534,2,0.2,0.5,0.7,2025-11-03 14h24.47.792096 -0800,
22,0,22,up,0.42839683312922716,None,None,,,22,0,22,0,105.01668691704981,,,,,,,,,105.0037712501362,105.01668691704981,0.011557082878425717,106.00372954201885,23,2,0.2,0.5,0.7,106.00404833396897,106.01706429198384,106.01706429198384,106.01706429198384,106.01706429198384,106.4581758340355,up,0.42839683312922716,None,up,0.42839683312922716,0.5,1,106.47001079213805,106.4726394591853,106.4726394591853,106.4726394591853,106.4726394591853,108.45806662505493,NA,NA,108.45839758403599,108.45842649997212,None,108.45851054205559,108.47103745909408,109.47056462499313,109.45763091696426,106.01706429198384,108.47103745909408,108.47103745909408,108.47103745909408,108.47103745909408,,,,,,,,,,,33604,001,2025-11-03_14h24.38.158,regret_experiment,,2025.1.1,74.62303713747534,2,0.2,0.5,0.7,2025-11-03 14h24.47.792096 -0800,
23,0,23,up,0.36057283403351903,None,None,,,23,0,23,0,109.47056462499313,,,,,,,,,109.45811329199933,109.47056462499313,-0.0003491670358926058,110.45704162516631,24,2,0.2,0.5,0.7,110.45737370918505,110.46971712517552,110.46971712517552,110.46971712517552,110.46971712517552,110.83249325002544,up,0.36057283403351903,None,up,0.36057283403351903,0.5,0,110.84600087511353,110.84884887514636,110.84884887514636,110.84884887514636,110.84884887514636,112.8441691249609,NA,NA,112.84454483399168,112.84457429195754,None,112.84464291715994,112.85663412511349,113.85510391718708,113.84451233409345,110.46971712517552,,,,,,,,,,,,,,,33604,001,2025-11-03_14h24.38.158,regret_experiment,,2025.1.1,74.62303713747534,2,0.2,0.5,0.7,2025-11-03 14h24.47.792096 -0800,
24,0,24,right,0.2931110830977559,None,None,,,24,0,24,0,113.85510391718708,,,,,,,,,113.84493825002573,113.85510391718708,0.00034233415499329567,114.84440258401446,25,2,0.2,0.5,0.7,114.84469779208302,114.85653966711834,114.85653966711834,114.85653966711834,114.85653966711834,115.15096995909698,right,0.2931110830977559,None,right,0.2931110830977559,0.7,0,115.16422999999486,115.16715458407998,115.16715458407998,115.16715458407998,115.16715458407998,117.1508951249998,NA,NA,117.15119816712104,117.15122391702607,None,117.15130133414641,117.16342362505384,118.16352770896628,118.15074012498371,114.85653966711834,117.16342362505384,117.16342362505384,117.16342362505384,117.16342362505384,,,,,,,,,,,33604,001,2025-11-03_14h24.38.158,regret_experiment,,2025.1.1,74.62303713747534,2,0.2,0.5,0.7,2025-11-03 14h24.47.792096 -0800,
25,0,25,up,0.3779472908936441,None,None,,,25,0,25,0,118.16352770896628,,,,,,,,,118.15117708407342,118.16352770896628,-7.937499321997166e-05,119.15108662517741,26,2,0.2,0.5,0.7,119.15141945914365,119.16338537517004,119.16338537517004,119.16338537517004,119.16338537517004,119.55135929211974,up,0.3779472908936441,None,up,0.3779472908936441,0.5,0,119.56460187514313,119.56721508409828,119.56721508409828,119.56721508409828,119.56721508409828,121.5512465420179,NA,NA,121.55154720903374,121.551575666992,None,121.55163624999113,121.56443508411758,122.56305954209529,122.55062533402815,119.16338537517004,121.56443508411758,121.56443508411758,121.56443508411758,121.56443508411758,,,,,,,,,,,33604,001,2025-11-03_14h24.38.158,regret_experiment,,2025.1.1,74.62303713747534,2,0.2,0.5,0.7,2025-11-03 14h24.47.792096 -0800,
26,0,26,up,1.493800082942471,None,None,,,26,0,26,0,122.56305954209529,,,,,,,,,122.55107837496325,122.56305954209529,-0.0005147920455783606,123.55065866699442,27,2,0.2,0.5,0.7,123.55102804210037,123.56312025012448,123.56312025012448,123.56312025012448,123.56312025012448,125.05897887516767,up,1.493800082942471,None,up,1.493800082942471,0.5,0,125.07212275010534,125.07487424998544,125.07487424998544,125.07487424998544,125.07487424998544,127.07139837509021,NA,NA,127.07180754211731,127.07184824999422,None,127.07191825006157,127.08431166713126,128.08432804211043,128.0711676250212,123.56312025012448,,,,,,,,,,,,,,,33604,001,2025-11-03_14h24.38.158,regret_experiment,,2025.1.1,74.62303713747534,2,0.2,0.5,0.7,2025-11-03 14h24.47.792096 -0800,
27,0,27,up,0.38722445792518556,None,None,,,27,0,27,0,128.08432804211043,,,,,,,,,128.07159216701984,128.08432804211043,-0.0002783748786896467,129.07094620913267,28,2,0.2,0.5,0.7,129.0712641251739,129.08358008414507,129.08358008414507,129.08358008414507,129.08358008414507,129.47266383399256,up,0.38722445792518556,None,up,0.38722445792518556,0.5,1,129.4848088340368,129.4875672501512,129.4875672501512,129.4875672501512,129.4875672501512,131.47050566715188,NA,NA,131.4708135840483,131.47084800014272,None,131.47092908411287,131.48398295906372,,132.47109620901756,129.08358008414507,131.48398295906372,131.48398295906372,131.48398295906372,131.48398295906372,,,,,,,,,,,33604,001,2025-11-03_14h24.38.158,regret_experiment,,2025.1.1,74.62303713747534,2,0.2,0.5,0.7,2025-11-03 14h24.47.792096 -0800,
28,0,28,up,0.6147980000823736,None,None,,,28,0,28,0,132.48440212500282,,,,,,,,,132.47158854198642,132.48440212500282,0.0007071248255670071,133.46968391700648,29,2,0.2,0.5,0.7,133.46988329198211,133.48279237514362,133.48279237514362,133.48279237514362,133.48279237514362,134.09941887506284,up,0.6147980000823736,None,up,0.6147980000823736,0.5,1,134.11184300016612,134.11512941704132,134.11512941704132,134.11512941704132,134.11512941704132,136.11018904205412,NA,NA,136.1106232921593,136.11066591716371,None,136.1107405840885,136.12274025008082,137.12475825008005,137.10897083417512,133.48279237514362,,,,,,,,,,,,,,,33604,001,2025-11-03_14h24.38.158,regret_experiment,,2025.1.1,74.62303713747534,2,0.2,0.5,0.7,2025-11-03 14h24.47.792096 -0800,
29,0,29,up,0.2974731249269098,None,None,,,29,0,29,0,137.12475825008005,,,,,,,,,137.10942200012505,137.12475825008005,0.014091459102928638,138.11132825003006,30,2,0.2,0.5,0.7,138.11169612500817,138.1242103751283,138.1242103751283,138.1242103751283,138.1242103751283,138.43128650006838,up,0.2974731249269098,None,up,0.2974731249269098,0.5,1,138.44349470897578,138.4462353750132,138.4462353750132,138.4462353750132,138.4462353750132,140.43079695897177,NA,NA,140.43112670909613,140.4311537090689,None,140.43122033402324,140.44433991704136,141.44378608418629,141.43135025002994,,140.44433991704136,140.44433991704136,140.44433991704136,140.44433991704136,,,,,,,,,,,33604,001,2025-11-03_14h24.38.158,regret_experiment,,2025.1.1,74.62303713747534,2,0.2,0.5,0.7,2025-11-03 14h24.47.792096 -0800,
30,0,30,up,0.3074996671639383,None,None,,,30,0,30,0,141.44378608418629,,,,,,,,,141.43178337509744,141.44378608418629,0.0006107499357312918,142.43103300011717,31,2,0.2,0.5,0.7,142.43135075015016,142.44347741710953,142.44347741710953,142.44347741710953,142.44347741710953,142.75298787513748,up,0.3074996671639383,None,up,0.3074996671639383,0.5,1,142.76505316700786,142.76764625008218,142.76764625008218,142.76764625008218,142.76764625008218,144.75186058413237,NA,NA,144.7521697920747,144.7521964169573,None,144.75226066703908,144.7631787089631,145.76405858411454,145.7513635000214,142.44347741710953,144.7631787089631,144.7631787089631,144.7631787089631,144.7631787089631,,,,,,,,,,,33604,001,2025-11-03_14h24.38.158,regret_experiment,,2025.1.1,74.62303713747534,2,0.2,0.5,0.7,2025-11-03 14h24.47.792096 -0800,
31,0,31,up,0.38709020777605474,None,2,2.2202583749312907,None,31,0,31,0,145.76405858411454,,,,,,,,,145.75183220906183,145.76405858411454,-0.00038187485188245773,146.75059966696426,32,2,0.2,0.5,0.7,146.75091695901938,146.76321754208766,146.76321754208766,146.76321754208766,146.76321754208766,147.1523767921608,up,0.38709020777605474,None,up,0.38709020777605474,0.5,0,147.16595979197882,147.16860829200596,147.16860829200596,147.16860829200596,147.16860829200596,149.16309520904906,2,2.2202583749312907,149.17074533412233,151.4038039171137,2,151.40389729198068,151.4183136250358,152.41812629206106,152.40225825016387,146.76321754208766,,,,,149.17730662506074,149.17730662506074,149.17730662506074,149.17730662506074,149.17730662506074,2.2202583749312907,None,,,,33604,001,2025-11-03_14h24.38.158,regret_experiment,,2025.1.1,74.62303713747534,2,0.2,0.5,0.7,2025-11-03 14h24.47.792096 -0800,
32,0,32,up,0.5002259579487145,None,None,,,32,0,32,0,152.41812629206106,,,,,,,,,152.40270375018008,152.41812629206106,0.014306416967883706,153.40477650007233,33,2,0.2,0.5,0.7,153.40516020916402,153.41771191707812,153.41771191707812,153.41771191707812,153.41771191707812,153.92533404217102,up,0.5002259579487145,None,up,0.5002259579487145,0.5,1,153.93744374997914,153.94025562517345,153.94025562517345,153.94025562517345,153.94025562517345,155.9239696250297,NA,NA,155.9242934170179,155.92432112502865,None,155.92438683402725,155.93678712495603,156.93776808399707,156.9227762920782,,155.93678712495603,155.93678712495603,155.93678712495603,155.93678712495603,,,,,,,,,,,33604,001,2025-11-03_14h24.38.158,regret_experiment,,2025.1.1,74.62303713747534,2,0.2,0.5,0.7,2025-11-03 14h24.47.792096 -0800,
33,0,33,up,0.6693342090584338,None,None,,,33,0,33,0,156.93776808399707,,,,,,,,,156.9232237089891,156.93776808399707,0.013457250082865357,157.92429229198024,34,2,0.2,0.5,0.7,157.92460591718554,157.93664525006898,157.93664525006898,157.93664525006898,157.93664525006898,158.617232167162,up,0.6693342090584338,None,up,0.6693342090584338,0.5,1,158.62988100014627,158.6326504170429,158.6326504170429,158.6326504170429,158.6326504170429,160.61670291703194,NA,NA,160.61704820906743,160.61707491707057,None,160.61715366714634,160.6314505841583,161.63060162495822,161.61741912504658,157.93664525006898,160.6314505841583,160.6314505841583,160.6314505841583,160.6314505841583,,,,,,,,,,,33604,001,2025-11-03_14h24.38.158,regret_experiment,,2025.1.1,74.62303713747534,2,0.2,0.5,0.7,2025-11-03 14h24.47.792096 -0800,
34,0,34,up,0.6670475001446903,None,2,2.21984541695565,None,34,0,34,0,161.63060162495822,,,,,,,,,161.61786029208452,161.63060162495822,0.0007535000331699848,162.6174310001079,35,2,0.2,0.5,0.7,162.6177862500772,162.63052600016817,162.63052600016817,162.63052600016817,162.63052600016817,163.29963733395562,up,0.6670475001446903,None,up,0.6670475001446903,0.5,0,163.31280345912091,163.31541941710748,163.31541941710748,163.31541941710748,163.31541941710748,165.31086329207756,2,2.21984541695565,165.31847437517717,167.55176054197364,2,167.55186062515713,167.563737250166,168.5645643339958,168.549407124985,,,,,,165.3215379170142,165.3215379170142,165.3215379170142,165.3215379170142,165.3215379170142,2.21984541695565,None,,,,33604,001,2025-11-03_14h24.38.158,regret_experiment,,2025.1.1,74.62303713747534,2,0.2,0.5,0.7,2025-11-03 14h24.47.792096 -0800,
35,0,35,up,0.3539659169036895,None,None,,,35,0,35,0,168.5645643339958,,,,,,,,,168.54986883397214,168.5645643339958,0.01278287498280406,169.55046083405614,36,2,0.2,0.5,0.7,169.55078829196282,169.56359529215842,169.56359529215842,169.56359529215842,169.56359529215842,169.92536008404568,up,0.3539659169036895,None,up,0.3539659169036895,0.5,1,169.9370629170444,169.93981062504463,169.93981062504463,169.93981062504463,169.93981062504463,171.92368329199962,NA,NA,171.92388408398256,171.92390929209068,None,171.92395600001328,171.9362532920204,172.93668770906515,172.92397058405913,169.56359529215842,171.9362532920204,171.9362532920204,171.9362532920204,171.9362532920204,,,,,,,,,,,33604,001,2025-11-03_14h24.38.158,regret_experiment,,2025.1.1,74.62303713747534,2,0.2,0.5,0.7,2025-11-03 14h24.47.792096 -0800,
36,0,36,left,0.5494779590517282,None,None,,,36,0,36,0,172.93668770906515,,,,,,,,,172.92437929217704,172.93668770906515,0.0004594998899847269,173.92375087505206,37,2,0.2,0.5,0.7,173.924086375162,173.93629133398645,173.93629133398645,173.93629133398645,173.93629133398645,174.4976499590557,left,0.5494779590517282,None,left,0.5494779590517282,0.2,1,174.51101437513717,174.51424512499943,174.51424512499943,174.51424512499943,174.51424512499943,176.4978102920577,NA,NA,176.4981418340467,176.49816683400422,None,176.49823637516238,176.51006154203787,177.5110736670904,177.4981890420895,173.93629133398645,176.51006154203787,176.51006154203787,176.51006154203787,176.51006154203787,,,,,,,,,,,33604,001,2025-11-03_14h24.38.158,regret_experiment,,2025.1.1,74.62303713747534,2,0.2,0.5,0.7,2025-11-03 14h24.47.792096 -0800,
37,0,37,right,0.37388370791450143,None,None,,,37,0,37,0,177.5110736670904,,,,,,,,,177.49866966716945,177.5110736670904,0.0004810409154742956,178.49758341698907,38,2,0.2,0.5,0.7,178.49788633408025,178.5114777921699,178.5114777921699,178.5114777921699,178.5114777921699,178.89677062514238,right,0.37388370791450143,None,right,0.37388370791450143,0.7,1,178.90588179207407,178.9095382920932,178.9095382920932,178.9095382920932,178.9095382920932,180.89701941702515,NA,NA,180.89743250003085,180.8974768749904,None,180.89754641707987,180.9104800419882,181.9102553341072,181.8972140001133,178.5114777921699,,,,,,,,,,,,,,,33604,001,2025-11-03_14h24.38.158,regret_experiment,,2025.1.1,74.62303713747534,2,0.2,0.5,0.7,2025-11-03 14h24.47.792096 -0800,
38,0,38,up,0.4948017499409616,None,None,,,38,0,38,0,181.9102553341072,,,,,,,,,181.89766262518242,181.9102553341072,0.00016495794989168644,182.89772612508386,39,2,0.2,0.5,0.7,182.89811599999666,182.9106699170079,182.9106699170079,182.9106699170079,182.9106699170079,183.41893675015308,up,0.4948017499409616,None,up,0.4948017499409616,0.5,1,183.43051008414477,183.4330807090737,183.4330807090737,183.4330807090737,183.4330807090737,185.41703975014389,NA,NA,185.41737124999054,185.41740404209122,None,185.41747379209846,185.43025370896794,,186.41761912498623,182.9106699170079,185.43025370896794,185.43025370896794,185.43025370896794,185.43025370896794,,,,,,,,,,,33604,001,2025-11-03_14h24.38.158,regret_experiment,,2025.1.1,74.62303713747534,2,0.2,0.5,0.7,2025-11-03 14h24.47.792096 -0800,
39,0,39,up,0.39101383299566805,None,2,3.1454120001289994,None,39,0,39,0,186.43007108406164,,,,,,,,,186.41809841711074,186.43007108406164,0.0006743341218680143,187.41720066708513,40,2,0.2,0.5,0.7,187.41752754198387,187.43011995917186,187.43011995917186,187.43011995917186,187.43011995917186,187.83148379204795,up,0.39101383299566805,None,up,0.39101383299566805,0.5,0,187.84418633417226,187.84682924998924,187.84682924998924,187.84682924998924,187.84682924998924,189.8316053750459,2,3.1454120001289994,189.8390037920326,193.00537629215978,2,193.00547520909458,193.0177884590812,194.01790712517686,194.00182850006968,187.43011995917186,189.84399970900267,189.84399970900267,189.84399970900267,189.84399970900267,189.84399970900267,189.84399970900267,189.84399970900267,189.84399970900267,189.84399970900267,3.1454120001289994,None,,,,33604,001,2025-11-03_14h24.38.158,regret_experiment,,2025.1.1,74.62303713747534,2,0.2,0.5,0.7,2025-11-03 14h24.47.792096 -0800,
40,0,40,up,0.35961674991995096,None,2,1.4969597500748932,None,40,0,40,0,194.01790712517686,,,,,,,,,194.00221979198977,194.01790712517686,0.012516875052824616,195.0036880420521,41,2,0.2,0.5,0.7,195.00399875012226,195.01693220902234,195.01693220902234,195.01693220902234,195.01693220902234,195.37791462498717,up,0.35961674991995096,None,up,0.35961674991995096,0.5,0,195.39114529197104,195.39391279197298,195.39391279197298,195.39391279197298,195.39391279197298,197.3776916670613,2,1.4969597500748932,197.3849113341421,198.89874404203147,2,198.89884295896627,198.91162091703154,199.9103082921356,199.89749637502246,195.01693220902234,197.38874745904468,197.38874745904468,197.38874745904468,197.38874745904468,197.38874745904468,197.38874745904468,197.38874745904468,197.38874745904468,197.38874745904468,1.4969597500748932,None,,,,33604,001,2025-11-03_14h24.38.158,regret_experiment,,2025.1.1,74.62303713747534,2,0.2,0.5,0.7,2025-11-03 14h24.47.792096 -0800,
41,0,41,up,0.37416412495076656,None,2,0.594152124831453,None,41,0,41,0,199.9103082921356,,,,,,,,,199.89804562507197,199.9103082921356,-0.000746333971619606,200.89631995907985,42,2,0.2,0.5,0.7,200.89663779200055,200.91152812517248,200.91152812517248,200.91152812517248,200.91152812517248,201.29872587509453,up,0.37416412495076656,None,up,0.37416412495076656,0.5,0,201.31217458401807,201.31488854205236,201.31488854205236,201.31488854205236,201.31488854205236,203.31031641713344,2,0.594152124831453,203.31769650010392,203.92470270907506,2,203.92479537497275,203.93815395911224,204.9369964171201,204.92462250008248,200.91152812517248,,,,,203.3228891249746,203.3228891249746,203.3228891249746,203.3228891249746,203.3228891249746,0.594152124831453,None,,,,33604,001,2025-11-03_14h24.38.158,regret_experiment,,2025.1.1,74.62303713747534,2,0.2,0.5,0.7,2025-11-03 14h24.47.792096 -0800,
42,0,42,up,0.48456654185429215,None,None,,,42,0,42,0,204.9369964171201,,,,,,,,,204.9250878749881,204.9369964171201,0.00034095789305865765,205.92425675014965,43,2,0.2,0.5,0.7,205.9245674170088,205.93758958415128,205.93758958415128,205.93758958415128,205.93758958415128,206.43254179204814,up,0.48456654185429215,None,up,0.48456654185429215,0.5,1,206.44445783412084,206.44709683395922,206.44709683395922,206.44709683395922,206.44709683395922,208.44254708406515,NA,NA,208.44281754200347,208.44284400017932,None,208.4428834170103,208.45715229213238,,209.44363937503658,205.93758958415128,,,,,,,,,,,,,,,33604,001,2025-11-03_14h24.38.158,regret_experiment,,2025.1.1,74.62303713747534,2,0.2,0.5,0.7,2025-11-03 14h24.47.792096 -0800,
43,0,43,up,0.21970358304679394,None,None,,,43,0,43,0,209.45587208401412,,,,,,,,,209.44418387510814,209.45587208401412,0.0013337498530745506,210.44245079206303,44,2,0.2,0.5,0.7,210.44273025006987,210.45792812504806,210.45792812504806,210.45792812504806,210.45792812504806,210.68501462507993,up,0.21970358304679394,None,up,0.21970358304679394,0.5,1,210.69659233395942,210.69938987516798,210.69938987516798,210.69938987516798,210.69938987516798,212.68475975003093,NA,NA,212.6850575839635,212.68508445913903,None,212.68515304196626,212.69623587513342,213.69768120907247,213.6849596251268,210.45792812504806,212.69623587513342,212.69623587513342,212.69623587513342,212.69623587513342,,,,,,,,,,,33604,001,2025-11-03_14h24.38.158,regret_experiment,,2025.1.1,74.62303713747534,2,0.2,0.5,0.7,2025-11-03 14h24.47.792096 -0800,
44,0,44,up,0.325702500063926,None,2,1.259695583023131,None,44,0,44,0,213.69768120907247,,,,,,,,,213.68543733400293,213.69768120907247,0.00033295806497335434,214.68375325016677,45,2,0.2,0.5,0.7,214.68410291709006,214.69621120905504,214.69621120905504,214.69621120905504,214.69621120905504,215.03137579211034,up,0.325702500063926,None,up,0.325702500063926,0.5,0,215.04456287506036,215.04719425016083,215.04719425016083,215.04719425016083,215.04719425016083,217.03027666709386,2,1.259695583023131,217.0375883341767,218.3102396670729,2,218.3103140841704,218.32361304201186,219.32461541704834,219.3102522501722,214.69621120905504,217.04181758407503,217.04181758407503,217.04181758407503,217.04181758407503,217.04181758407503,217.04181758407503,217.04181758407503,217.04181758407503,217.04181758407503,1.259695583023131,None,,,,33604,001,2025-11-03_14h24.38.158,regret_experiment,,2025.1.1,74.62303713747534,2,0.2,0.5,0.7,2025-11-03 14h24.47.792096 -0800,
45,0,45,up,0.38582195807248354,None,None,,,45,0,45,0,219.32461541704834,,,,,,,,,219.31071283412166,219.32461541704834,0.00044120801612734795,220.3105470421724,46,2,0.2,0.5,0.7,220.3109362090472,220.32451066700742,220.32451066700742,220.32451066700742,220.32451066700742,220.71239820914343,up,0.38582195807248354,None,up,0.38582195807248354,0.5,1,220.72439845907502,220.72720829211175,220.72720829211175,220.72720829211175,220.72720829211175,222.72169037512504,NA,NA,222.72198087512515,222.72200045897625,None,222.72204137500376,222.73499704198912,,223.72460516705178,,,,,,,,,,,,,,,,33604,001,2025-11-03_14h24.38.158,regret_experiment,,2025.1.1,74.62303713747534,2,0.2,0.5,0.7,2025-11-03 14h24.47.792096 -0800,
46,0,46,up,0.5179503748659045,None,2,1.1999677917920053,None,46,0,46,0,223.73834462510422,,,,,,,,,223.72508037509397,223.73834462510422,0.0030739998910576105,224.7223858339712,47,2,0.2,0.5,0.7,224.72276408411562,224.7381854171399,224.7381854171399,224.7381854171399,224.7381854171399,225.2584835421294,up,0.5179503748659045,None,up,0.5179503748659045,0.5,0,225.27050087507814,225.27419050014578,225.27419050014578,225.27419050014578,225.27419050014578,227.25782954203896,2,1.1999677917920053,227.26518912496977,228.48446866706945,2,228.4845645420719,228.4973283340223,229.49616770911962,229.4842445841059,224.7381854171399,227.2689539999701,227.2689539999701,227.2689539999701,227.2689539999701,227.2689539999701,227.2689539999701,227.2689539999701,227.2689539999701,227.2689539999701,1.1999677917920053,None,,,,33604,001,2025-11-03_14h24.38.158,regret_experiment,,2025.1.1,74.62303713747534,2,0.2,0.5,0.7,2025-11-03 14h24.47.792096 -0800,
47,0,47,up,0.4683563341386616,None,None,,,47,0,47,0,229.49616770911962,,,,,,,,,229.4846146251075,229.49616770911962,9.812484495341778e-05,230.48376325005665,48,2,0.2,0.5,0.7,230.48404541704804,230.49655425013043,230.49655425013043,230.49655425013043,230.49655425013043,230.97684458410367,up,0.4683563341386616,None,up,0.4683563341386616,0.5,1,230.9895035000518,230.99391645914875,230.99391645914875,230.99391645914875,230.99391645914875,232.99128345912322,NA,NA,232.99160370905884,232.99163370905444,None,232.99170412495732,233.00401895912364,,233.9919647499919,230.49655425013043,,,,,,,,,,,,,,,33604,001,2025-11-03_14h24.38.158,regret_experiment,,2025.1.1,74.62303713747534,2,0.2,0.5,0.7,2025-11-03 14h24.47.792096 -0800,
48,0,48,up,0.3611331668216735,None,2,1.3360728749539703,None,48,0,48,0,234.0019961670041,,,,,,,,,233.99251937516965,234.0019961670041,0.000865875044837594,234.98856112500653,49,2,0.2,0.5,0.7,234.98883875017054,235.00472833402455,235.00472833402455,235.00472833402455,235.00472833402455,235.37736362498254,up,0.3611331668216735,None,up,0.3611331668216735,0.5,0,235.39111141697504,235.3957036670763,235.3957036670763,235.3957036670763,235.3957036670763,237.39109404198825,2,1.3360728749539703,237.39874541712925,238.752124333987,2,238.75222241715528,238.76310195913538,239.7648757500574,239.7500090841204,235.00472833402455,,,,,237.4053094589617,237.4053094589617,237.4053094589617,237.4053094589617,237.4053094589617,1.3360728749539703,None,,,,33604,001,2025-11-03_14h24.38.158,regret_experiment,,2025.1.1,74.62303713747534,2,0.2,0.5,0.7,2025-11-03 14h24.47.792096 -0800,
49,0,49,right,0.3936555830296129,None,2,0.727115249959752,None,49,0,49,0,239.7648757500574,,,,,,,,,239.75045350007713,239.7648757500574,0.012729250127449632,240.75171487499028,50,2,0.2,0.5,0.7,240.75198683398776,240.76396500016563,240.76396500016563,240.76396500016563,240.76396500016563,241.164369125152,right,0.3936555830296129,None,right,0.3936555830296129,0.7,0,241.1782295841258,241.18261216697283,241.18261216697283,241.18261216697283,241.18261216697283,243.17656337516382,2,0.727115249959752,243.18414295907132,243.92636966705322,2,243.92646350013092,243.9356764999684,244.93717779195867,244.92500941711478,240.76396500016563,,,,,243.1905277920887,243.1905277920887,243.1905277920887,243.1905277920887,243.1905277920887,0.727115249959752,None,,,,33604,001,2025-11-03_14h24.38.158,regret_experiment,,2025.1.1,74.62303713747534,2,0.2,0.5,0.7,2025-11-03 14h24.47.792096 -0800,
50,0,50,left,0.5079487920738757,None,2,1.7737978750374168,None,50,0,50,0,244.93717779195867,,,,,,,,,244.92546425014734,244.93717779195867,-0.000949417008087039,245.92367337504402,51,2,0.2,0.5,0.7,245.92399066709913,245.93739537498914,245.93739537498914,245.93739537498914,245.93739537498914,246.4568169170525,left,0.5079487920738757,None,left,0.5079487920738757,0.2,0,246.47091304208152,246.47529183398,246.47529183398,246.47529183398,246.47529183398,248.45803520898335,2,1.7737978750374168,248.4656546250917,250.25664008408785,2,250.2567323751282,250.2712579171639,251.27141308411956,251.2554934171494,245.93739537498914,,,,,248.4718472501263,248.4718472501263,248.4718472501263,248.4718472501263,248.4718472501263,1.7737978750374168,None,,,,33604,001,2025-11-03_14h24.38.158,regret_experiment,,2025.1.1,74.62303713747534,2,0.2,0.5,0.7,2025-11-03 14h24.47.792096 -0800,
51,0,51,left,0.9262965421658009,None,None,,,51,0,51,0,251.27141308411956,,,,,,,,,251.2558752920013,251.27141308411956,-0.0008078340906649828,252.25586012518033,52,2,0.2,0.5,0.7,252.25615920918062,252.271227292018,252.271227292018,252.271227292018,252.271227292018,253.20518437516876,left,0.9262965421658009,None,left,0.9262965421658009,0.2,1,253.21732879197225,253.22182450001128,253.22182450001128,253.22182450001128,253.22182450001128,255.21800587512553,NA,NA,255.21831816714257,255.2183489999734,None,255.2184193341527,255.2305785419885,,256.2189627920743,252.271227292018,,,,,,,,,,,,,,,33604,001,2025-11-03_14h24.38.158,regret_experiment,,2025.1.1,74.62303713747534,2,0.2,0.5,0.7,2025-11-03 14h24.47.792096 -0800,
52,0,52,right,0.4013262919615954,None,None,,,52,0,52,0,256.2307156249881,,,,,,,,,256.2194334589876,256.2307156249881,0.001061915885657072,257.21773679205216,53,2,0.2,0.5,0.7,257.21799983410165,257.22932558413595,257.22932558413595,257.22932558413595,257.22932558413595,257.63254608400166,right,0.4013262919615954,None,right,0.4013262919615954,0.7,1,257.64527737512253,257.64961029216647,257.64961029216647,257.64961029216647,257.64961029216647,259.6444715000689,NA,NA,259.644794333959,259.6448320001364,None,259.64490904216655,259.65763195906766,260.65683658397757,260.64462741697207,257.22932558413595,,,,,,,,,,,,,,,33604,001,2025-11-03_14h24.38.158,regret_experiment,,2025.1.1,74.62303713747534,2,0.2,0.5,0.7,2025-11-03 14h24.47.792096 -0800,
53,0,53,up,0.34867979190312326,None,2,1.0271539581008255,None,53,0,53,0,260.65683658397757,,,,,,,,,260.6449065001216,260.65683658397757,4.39169816672802e-05,261.644976709038,54,2,0.2,0.5,0.7,261.64534391695634,261.65717291715555,261.65717291715555,261.65717291715555,261.65717291715555,262.0188458340708,up,0.34867979190312326,None,up,0.34867979190312326,0.5,0,262.03259083395824,262.03703954210505,262.03703954210505,262.03703954210505,262.03703954210505,264.030300459126,2,1.0271539581008255,264.0381808751263,265.07123058405705,2,265.0713388749864,265.0828357920982,266.0830398341641,266.0705705001019,,,,,,264.042309459066,264.042309459066,264.042309459066,264.042309459066,264.042309459066,1.0271539581008255,None,,,,33604,001,2025-11-03_14h24.38.158,regret_experiment,,2025.1.1,74.62303713747534,2,0.2,0.5,0.7,2025-11-03 14h24.47.792096 -0800,
54,0,54,right,1.040948832873255,None,2,0.5389807920437306,None,54,0,54,0,266.0830398341641,,,,,,,,,266.070996375056,266.0830398341641,-0.00028758286498486996,267.07137137511745,55,2,0.2,0.5,0.7,267.0716385000851,267.08512304211035,267.08512304211035,267.08512304211035,267.08512304211035,268.1387176250573,right,1.040948832873255,None,right,1.040948832873255,0.7,0,268.1524997090455,268.1561890421435,268.1561890421435,268.1561890421435,268.1561890421435,270.15120016713627,2,0.5389807920437306,270.15883070905693,270.7129547500517,2,270.71304933400825,270.72469958406873,271.7247928341385,271.70892624999397,267.08512304211035,,,,,270.1632074590307,270.1632074590307,270.1632074590307,270.1632074590307,270.1632074590307,0.5389807920437306,None,,,,33604,001,2025-11-03_14h24.38.158,regret_experiment,,2025.1.1,74.62303713747534,2,0.2,0.5,0.7,2025-11-03 14h24.47.792096 -0800,
55,0,55,left,0.3216197080910206,None,2,0.5343294579070061,None,55,0,55,0,271.7247928341385,,,,,,,,,271.7093384170439,271.7247928341385,0.011826374800875783,272.71085820905864,56,2,0.2,0.5,0.7,272.7111297920346,272.72376837511547,272.72376837511547,272.72376837511547,272.72376837511547,273.04711837507784,left,0.3216197080910206,None,left,0.3216197080910206,0.2,0,273.06126354215667,273.06565087498166,273.06565087498166,273.06565087498166,273.06565087498166,275.0562717921566,2,0.5343294579070061,275.06395325018093,275.61751520913094,2,275.61761129205115,275.6313609590288,276.6297355000861,276.61724412511103,272.72376837511547,,,,,275.0704941251315,275.0704941251315,275.0704941251315,275.0704941251315,275.0704941251315,0.5343294579070061,None,,,,33604,001,2025-11-03_14h24.38.158,regret_experiment,,2025.1.1,74.62303713747534,2,0.2,0.5,0.7,2025-11-03 14h24.47.792096 -0800,
56,0,56,up,0.2875349170062691,None,None,,,56,0,56,0,276.6297355000861,,,,,,,,,276.61766033410095,276.6297355000861,0.00010004197247326374,277.61767629208043,57,2,0.2,0.5,0.7,277.6180629171431,277.62976512499154,277.62976512499154,277.62976512499154,277.62976512499154,277.92349229217507,up,0.2875349170062691,None,up,0.2875349170062691,0.5,1,277.9356400840916,277.9390862500295,277.9390862500295,277.9390862500295,277.9390862500295,279.9234224590473,NA,NA,279.9236936250236,279.92372179217637,None,279.92379000014625,279.9381302089896,,280.9244843341876,,279.9381302089896,279.9381302089896,279.9381302089896,279.9381302089896,,,,,,,,,,,33604,001,2025-11-03_14h24.38.158,regret_experiment,,2025.1.1,74.62303713747534,2,0.2,0.5,0.7,2025-11-03 14h24.47.792096 -0800,
57,0,57,up,0.45415704185143113,None,None,,,57,0,57,0,280.93831079197116,,,,,,,,,280.9249225840904,280.93831079197116,0.0011805829126387835,281.92205716716126,58,2,0.2,0.5,0.7,281.9223437500186,281.9379673341755,281.9379673341755,281.9379673341755,281.9379673341755,282.39377291710116,up,0.45415704185143113,None,up,0.45415704185143113,0.5,1,282.4061074589845,282.4105122501496,282.4105122501496,282.4105122501496,282.4105122501496,284.40301545895636,NA,NA,284.40338979195803,284.40341920917854,None,284.4034907501191,284.41804937506095,,285.4048366250936,281.9379673341755,,,,,,,,,,,,,,,33604,001,2025-11-03_14h24.38.158,regret_experiment,,2025.1.1,74.62303713747534,2,0.2,0.5,0.7,2025-11-03 14h24.47.792096 -0800,
58,0,58,up,0.7599679159466177,None,2,0.8990404170472175,None,58,0,58,0,285.41746575012803,,,,,,,,,285.4052425841801,285.41746575012803,0.001799082849174738,286.40467970911413,59,2,0.2,0.5,0.7,286.40500866714865,286.41747766709886,286.41747766709886,286.41747766709886,286.41747766709886,287.17937925015576,up,0.7599679159466177,None,up,0.7599679159466177,0.5,0,287.1929027501028,287.1970607091207,287.1970607091207,287.1970607091207,287.1970607091207,289.1909561250359,2,0.8990404170472175,289.1987946671434,290.11160529218614,2,290.11170454206876,290.12276879209094,291.1240475419909,291.1112971249968,,,,,,289.2026838341262,289.2026838341262,289.2026838341262,289.2026838341262,289.2026838341262,0.8990404170472175,None,,,,33604,001,2025-11-03_14h24.38.158,regret_experiment,,2025.1.1,74.62303713747534,2,0.2,0.5,0.7,2025-11-03 14h24.47.792096 -0800,
59,0,59,up,0.6566320001147687,None,None,,,59,0,59,0,291.1240475419909,,,,,,,,,291.11176633415744,291.1240475419909,0.00011000013910233974,292.1103006671183,60,2,0.2,0.5,0.7,292.1105675001163,292.12197270896286,292.12197270896286,292.12197270896286,292.12197270896286,292.78036708408035,up,0.6566320001147687,None,up,0.6566320001147687,0.5,1,292.79294104198925,292.7974229170941,292.7974229170941,292.7974229170941,292.7974229170941,294.79134408407845,NA,NA,294.79168170900084,294.79171374998987,None,294.791781750042,294.8052601669915,295.80479429196566,295.7917086670641,292.12197270896286,,,,,,,,,,,,,,,33604,001,2025-11-03_14h24.38.158,regret_experiment,,2025.1.1,74.62303713747534,2,0.2,0.5,0.7,2025-11-03 14h24.47.792096 -0800,
,,,,,,,,,,,,,,,,,,,,,,,,,,,,,,,,,,,,,,,,,,,,,,,,,,,,,,,,,,,,,,,,,,,,,,,N/A,295.8016854589805,295.80479429196566,,,,,,,,,,,,,
