thisN,thisTrialN,thisRepN,key_resp_1.keys,key_resp_1.rt,key_resp_1.duration,regret_key.keys,regret_key.rt,regret_key.duration,trials.thisRepN,trials.thisTrialN,trials.thisN,trials.thisIndex,thisRow.t,notes,begin_exp.started,begin.started,advance_key.started,begin_exp.stopped,advance_key.keys,advance_key.rt,advance_key.duration,Fixation.started,fixcross.started,etRecord.started,Fixation.stopped,trial_num,participant_cond,prob_left,prob_up,prob_right,Choice.started,tree1_img.started,tree2_img.started,tree3_img.started,key_resp_1.started,Choice.stopped,trials.key_resp_1.keys,trials.key_resp_1.rt,trials.key_resp_1.duration,choice_key,choice_rt,choice_prob,points,Feedback.started,appleImage.started,tree1.started,tree2.started,tree3.started,Feedback.stopped,RegretRating.started,regret_scale.started,regret_key.started,rtree1.started,rtree2.started,rtree3.started,RegretRating.stopped,trials.regret_key.keys,trials.regret_key.rt,trials.regret_key.duration,regret_rating,regret_rt,ITI.started,blank_screen.started,blank_screen.stopped,ITI.stopped,fixcross.stopped,avg_regret,EndScreen.started,end_display.started,participant,session,date,expName,psychopyVersion,frameRate,participant_cond,prob_left,prob_up,prob_right,expStart,
,,,,,,,,,,,,,,,0.07595254099578597,0.161481332994299,0.161481332994299,4.687424332994851,space,4.395564541002386,None,,,,,,1,0.2,0.7,0.5,,,,,,,,,,,,,,,,,,,,,,,,,,,,,,,,,,,,,,,,33706,001,2025-10-29_14h30.22.967,regret_experiment,2024.2.4,118.57889222713618,1,0.2,0.7,0.5,2025-10-29 14h30.41.380348 -0700,
0,0,0,left,4.011942666998948,None,2,2.937841082995874,None,0,0,0,0,5.337362165999366,,,,,,,,,4.693970124993939,5.337362165999366,0.006518791997223161,5.692598957990413,1,1,0.2,0.7,0.5,5.693131624997477,5.711772458002088,5.711772458002088,5.711772458002088,5.711772458002088,9.729377499999828,left,4.011942666998948,None,left,4.011942666998948,0.2,0,9.774835082993377,10.032288832997438,10.032288832997438,10.032288832997438,10.032288832997438,11.737659499995061,11.755850665998878,11.770475540994084,11.770475540994084,11.770475540994084,11.770475540994084,11.770475540994084,14.711020999995526,2,2.937841082995874,None,2,2.937841082995874,14.711124708002899,14.720055874990067,15.711212957990938,15.705390874994919,,,,,33706,001,2025-10-29_14h30.22.967,regret_experiment,2024.2.4,118.57889222713618,1,0.2,0.7,0.5,2025-10-29 14h30.41.380348 -0700,
1,0,1,up,0.8584539159928681,None,None,,,1,0,1,0,15.711212957990938,,,,,,,,,15.70579154099687,15.711212957990938,0.00023487501312047243,16.704265790991485,2,1,0.2,0.7,0.5,16.70443549999618,16.709189375003916,16.709189375003916,16.709189375003916,16.709189375003916,17.572206707991427,up,0.8584539159928681,None,up,0.8584539159928681,0.7,1,17.589903165993746,17.60064037499251,17.60064037499251,17.60064037499251,17.60064037499251,19.5769724999991,19.57772395799111,,,,,,19.577847708002082,None,,,NA,NA,19.578033625002718,19.58760812500259,20.57856520799396,20.572007708004094,16.709189375003916,,,,33706,001,2025-10-29_14h30.22.967,regret_experiment,2024.2.4,118.57889222713618,1,0.2,0.7,0.5,2025-10-29 14h30.41.380348 -0700,
2,0,2,up,0.6601284999924246,None,2,1.7831383750017267,None,2,0,2,0,20.57856520799396,,,,,,,,,20.573017957998673,20.57856520799396,0.0006889590003993362,21.571932790990104,3,1,0.2,0.7,0.5,21.572632583003724,21.578574915998615,21.578574915998615,21.578574915998615,21.578574915998615,22.245932332996745,up,0.6601284999924246,None,up,0.6601284999924246,0.7,0,22.27431737499137,22.29751941599534,22.29751941599534,22.29751941599534,22.29751941599534,24.254518665999058,24.270876249996945,24.280370624997886,24.280370624997886,24.280370624997886,24.280370624997886,24.280370624997886,26.072491999992053,2,1.7831383750017267,None,2,1.7831383750017267,26.072640332989977,26.08979666599771,,27.075864332990022,21.578574915998615,,,,33706,001,2025-10-29_14h30.22.967,regret_experiment,2024.2.4,118.57889222713618,1,0.2,0.7,0.5,2025-10-29 14h30.41.380348 -0700,
3,0,3,right,1.4769763329968555,None,3,1.3562910839973483,None,3,0,3,0,27.087698707997333,,,,,,,,,27.076672750001308,27.087698707997333,0.004112666996661574,28.0719860829995,4,1,0.2,0.7,0.5,28.072856625003624,28.079054290996282,28.079054290996282,28.079054290996282,28.079054290996282,29.56185087499034,right,1.4769763329968555,None,right,1.4769763329968555,0.5,0,29.58993095799815,29.59780720800336,29.59780720800336,29.59780720800336,29.59780720800336,31.571191082999576,31.58810004100087,31.595453749992885,31.595453749992885,31.595453749992885,31.595453749992885,31.595453749992885,32.95652516599512,3,1.3562910839973483,None,3,1.3562910839973483,32.95667775000038,32.96582920799847,33.96047550000367,33.954723332994035,28.079054290996282,,,,33706,001,2025-10-29_14h30.22.967,regret_experiment,2024.2.4,118.57889222713618,1,0.2,0.7,0.5,2025-10-29 14h30.41.380348 -0700,
4,0,4,left,0.8929890829895157,None,None,,,4,0,4,0,33.96047550000367,,,,,,,,,33.955297124994104,33.96047550000367,0.003930790990125388,34.943663915997604,5,1,0.2,0.7,0.5,34.94417595799314,34.95433179099928,34.95433179099928,34.95433179099928,34.95433179099928,35.8567235829978,left,0.8929890829895157,None,left,0.8929890829895157,0.2,1,35.8836152080039,35.89217695799016,35.89217695799016,35.89217695799016,35.89217695799016,37.86027399999148,37.86078358300438,,,,,,37.860813207997126,None,,,NA,NA,37.86085912499402,37.870848999999,38.85918983299052,38.854132583001046,34.95433179099928,,,,33706,001,2025-10-29_14h30.22.967,regret_experiment,2024.2.4,118.57889222713618,1,0.2,0.7,0.5,2025-10-29 14h30.41.380348 -0700,
5,0,5,up,0.6514379580039531,None,None,,,5,0,5,0,38.85918983299052,,,,,,,,,38.85467845799576,38.85918983299052,0.008853334002196789,39.84422662499128,6,1,0.2,0.7,0.5,39.84494562499458,39.86044000000402,39.86044000000402,39.86044000000402,39.86044000000402,40.52323695800442,up,0.6514379580039531,None,up,0.6514379580039531,0.7,1,40.549059750002925,40.5579713749903,40.5579713749903,40.5579713749903,40.5579713749903,42.526763707996,42.52744133300439,,,,,,42.52751933300169,None,,,NA,NA,42.5276683330012,42.53772833300172,43.52862441599427,43.522152332996484,39.854378290998284,,,,33706,001,2025-10-29_14h30.22.967,regret_experiment,2024.2.4,118.57889222713618,1,0.2,0.7,0.5,2025-10-29 14h30.41.380348 -0700,
6,0,6,right,0.5675991659954889,None,3,1.5765238750027493,None,6,0,6,0,43.52862441599427,,,,,,,,,43.52304449999065,43.52862441599427,0.0010938750056084245,44.521821665999596,7,1,0.2,0.7,0.5,44.522379665999324,44.52821245799714,44.52821245799714,44.52821245799714,44.52821245799714,45.10640145800426,right,0.5675991659954889,None,right,0.5675991659954889,0.5,0,45.13294587499695,45.14114741599769,45.14114741599769,45.14114741599769,45.14114741599769,47.110231332990224,47.12633637500403,47.13588616599736,47.13588616599736,47.13588616599736,47.13588616599736,47.13588616599736,48.722200624994,3,1.5765238750027493,None,3,1.5765238750027493,48.72235083299165,48.73118975000398,49.73057529100333,49.72238329099491,44.52821245799714,,,,33706,001,2025-10-29_14h30.22.967,regret_experiment,2024.2.4,118.57889222713618,1,0.2,0.7,0.5,2025-10-29 14h30.41.380348 -0700,
7,0,7,up,0.6103529579995666,None,3,3.4302010829997016,None,7,0,7,0,49.73057529100333,,,,,,,,,49.72372420800093,49.73057529100333,0.0015438749978784472,50.72194870800013,8,1,0.2,0.7,0.5,50.72256199999538,50.728446374996565,50.728446374996565,50.728446374996565,50.728446374996565,51.34607266599778,up,0.6103529579995666,None,up,0.6103529579995666,0.7,0,51.374018040995,51.3820896249963,51.3820896249963,51.3820896249963,51.3820896249963,53.354281291001826,53.37039999999979,53.37787958300032,53.37787958300032,53.37787958300032,53.37787958300032,53.37787958300032,56.81346733299142,3,3.4302010829997016,None,3,3.4302010829997016,56.81377108299057,56.82790591599769,,57.820338874997105,50.728446374996565,,,,33706,001,2025-10-29_14h30.22.967,regret_experiment,2024.2.4,118.57889222713618,1,0.2,0.7,0.5,2025-10-29 14h30.41.380348 -0700,
8,0,8,left,0.41803229101060424,None,3,0.8769617920042947,None,8,0,8,0,57.8283680829918,,,,,,,,,57.821664999995846,57.8283680829918,0.008055333004449494,58.82145191599557,9,1,0.2,0.7,0.5,58.82219762499153,58.82920262499829,58.82920262499829,58.82920262499829,58.82920262499829,59.25627920799889,left,0.41803229101060424,None,left,0.41803229101060424,0.2,0,59.28980541600322,59.29847954100114,59.29847954100114,59.29847954100114,59.29847954100114,61.25899508300063,61.267076916003134,61.273952082992764,61.273952082992764,61.273952082992764,61.273952082992764,61.273952082992764,62.155419499991694,3,0.8769617920042947,None,3,0.8769617920042947,62.15552254099748,62.162949165998725,63.16230137499224,63.155478000000585,,,,,33706,001,2025-10-29_14h30.22.967,regret_experiment,2024.2.4,118.57889222713618,1,0.2,0.7,0.5,2025-10-29 14h30.41.380348 -0700,
9,0,9,up,0.6070340420119464,None,None,,,9,0,9,0,63.16230137499224,,,,,,,,,63.15624279099575,63.16230137499224,0.0007819580059731379,64.15479695799877,10,1,0.2,0.7,0.5,64.15499300000374,64.16078154099523,64.16078154099523,64.16078154099523,64.16078154099523,64.77220783299708,up,0.6070340420119464,None,up,0.6070340420119464,0.7,1,64.78699312500248,64.79432066599838,64.79432066599838,64.79432066599838,64.79432066599838,66.77732404100243,66.7777699159924,,,,,,66.77780766600335,None,,,NA,NA,66.7778511249926,66.78750508300436,67.77600545799942,67.77056841600279,64.16078154099523,,,,33706,001,2025-10-29_14h30.22.967,regret_experiment,2024.2.4,118.57889222713618,1,0.2,0.7,0.5,2025-10-29 14h30.41.380348 -0700,
10,0,10,up,0.37447158400027547,None,None,,,10,0,10,0,67.77600545799942,,,,,,,,,67.771266249998,67.77600545799942,0.009996458000387065,68.75995583299664,11,1,0.2,0.7,0.5,68.7601736249926,68.77695329100243,68.77695329100243,68.77695329100243,68.77695329100243,69.15680483299366,up,0.37447158400027547,None,up,0.37447158400027547,0.7,1,69.17052058299305,69.1804272080044,69.1804272080044,69.1804272080044,69.1804272080044,71.16026187500393,71.160909290993,,,,,,71.16100558299513,None,,,NA,NA,71.16112491599051,71.17107174999546,72.1614644999936,72.15543666599842,68.77079854099429,,,,33706,001,2025-10-29_14h30.22.967,regret_experiment,2024.2.4,118.57889222713618,1,0.2,0.7,0.5,2025-10-29 14h30.41.380348 -0700,
11,0,11,up,1.2528655829955824,None,2,0.5960022090002894,None,11,0,11,0,72.1614644999936,,,,,,,,,72.1561428749992,72.1614644999936,0.0004645409935619682,73.15557912499935,12,1,0.2,0.7,0.5,73.15628637500049,73.16266987500421,73.16266987500421,73.16266987500421,73.16266987500421,74.43111849999696,up,1.2528655829955824,None,up,1.2528655829955824,0.7,0,74.45920804099296,74.46709666599054,74.46709666599054,74.46709666599054,74.46709666599054,76.43803687499894,76.45510591600032,76.46685425000032,76.46685425000032,76.46685425000032,76.46685425000032,76.46685425000032,77.07340212499548,2,0.5960022090002894,None,2,0.5960022090002894,77.07358229099191,77.0828837500012,78.08002312500321,78.07222558300418,73.16266987500421,,,,33706,001,2025-10-29_14h30.22.967,regret_experiment,2024.2.4,118.57889222713618,1,0.2,0.7,0.5,2025-10-29 14h30.41.380348 -0700,
12,0,12,left,0.7458502919907914,None,3,0.9613476660015294,None,12,0,12,0,78.08002312500321,,,,,,,,,78.07302741600142,78.08002312500321,-0.00044299999717622995,79.0717335829977,13,1,0.2,0.7,0.5,79.07229762499628,79.07804416600266,79.07804416600266,79.07804416600266,79.07804416600266,79.82970945799025,left,0.7458502919907914,None,left,0.7458502919907914,0.2,0,79.8573204580025,79.86528787499992,79.86528787499992,79.86528787499992,79.86528787499992,81.83826350000163,81.85459212500427,81.86219162499765,81.86219162499765,81.86219162499765,81.86219162499765,81.86219162499765,82.83020029099134,3,0.9613476660015294,None,3,0.9613476660015294,82.8304893750028,82.84398454100301,,83.8377612500044,79.07804416600266,,,,33706,001,2025-10-29_14h30.22.967,regret_experiment,2024.2.4,118.57889222713618,1,0.2,0.7,0.5,2025-10-29 14h30.41.380348 -0700,
13,0,13,right,0.5056540829973528,None,None,,,13,0,13,0,83.84559545799857,,,,,,,,,83.83889908299898,83.84559545799857,0.008546582990675233,84.83812174999912,14,1,0.2,0.7,0.5,84.83899429099984,84.84496458299691,84.84496458299691,84.84496458299691,84.84496458299691,85.35571249999339,right,0.5056540829973528,None,right,0.5056540829973528,0.5,1,85.36797529099567,85.37621437499183,85.37621437499183,85.37621437499183,85.37621437499183,87.36047050000343,87.36121637499309,,,,,,87.36133812500339,None,,,NA,NA,87.36153258300328,87.37113412500184,88.36217779100116,88.35552412499965,,,,,33706,001,2025-10-29_14h30.22.967,regret_experiment,2024.2.4,118.57889222713618,1,0.2,0.7,0.5,2025-10-29 14h30.41.380348 -0700,
14,0,14,left,0.3816012910101563,None,2,0.49356175000139046,None,14,0,14,0,88.36217779100116,,,,,,,,,88.35646075000113,88.36217779100116,0.0008247919904533774,89.35542429100315,15,1,0.2,0.7,0.5,89.35606366599677,89.36240854099742,89.36240854099742,89.36240854099742,89.36240854099742,89.74666916599381,left,0.3816012910101563,None,left,0.3816012910101563,0.2,0,89.77408699999796,89.7825032910041,89.7825032910041,89.7825032910041,89.7825032910041,91.75499166599184,91.77200270799221,91.77935791599157,91.77935791599157,91.77935791599157,91.77935791599157,91.77935791599157,92.27891700000328,2,0.49356175000139046,None,2,0.49356175000139046,92.27904358299566,92.28752445799182,93.27880299999379,93.27219370799139,89.36240854099742,,,,33706,001,2025-10-29_14h30.22.967,regret_experiment,2024.2.4,118.57889222713618,1,0.2,0.7,0.5,2025-10-29 14h30.41.380348 -0700,
15,0,15,right,0.9688747089967364,None,None,,,15,0,15,0,93.27880299999379,,,,,,,,,93.27307337499224,93.27880299999379,-0.00012141698971390724,94.27209958300227,16,1,0.2,0.7,0.5,94.27264745799766,94.27839370799484,94.27839370799484,94.27839370799484,94.27839370799484,95.25685554099618,right,0.9688747089967364,None,right,0.9688747089967364,0.5,1,95.28321683299146,95.29125983300037,95.29125983300037,95.29125983300037,95.29125983300037,97.26078837500245,97.26145066600293,,,,,,97.26153037499171,None,,,NA,NA,97.26164287500433,97.27118183299899,98.26221491600154,98.25548262499797,94.27839370799484,,,,33706,001,2025-10-29_14h30.22.967,regret_experiment,2024.2.4,118.57889222713618,1,0.2,0.7,0.5,2025-10-29 14h30.41.380348 -0700,
16,0,16,up,1.0908114580088295,None,2,1.0144040000013774,None,16,0,16,0,98.26221491600154,,,,,,,,,98.25642262499605,98.26221491600154,0.0007026660023257136,99.25521733300411,17,1,0.2,0.7,0.5,99.2558452910016,99.26169241599564,99.26169241599564,99.26169241599564,99.26169241599564,100.35720833299274,up,1.0908114580088295,None,up,1.0908114580088295,0.7,0,100.38511033299437,100.39353950000077,100.39353950000077,100.39353950000077,100.39353950000077,102.36071254099079,102.37816049999674,102.38591470799292,102.38591470799292,102.38591470799292,102.38591470799292,102.38591470799292,103.40660029099672,2,1.0144040000013774,None,2,1.0144040000013774,103.4067492079921,103.4165565000003,104.41304454099736,104.40668429099605,99.26169241599564,,,,33706,001,2025-10-29_14h30.22.967,regret_experiment,2024.2.4,118.57889222713618,1,0.2,0.7,0.5,2025-10-29 14h30.41.380348 -0700,
17,0,17,right,0.6933297920040786,None,2,1.3823388329910813,None,17,0,17,0,104.41304454099736,,,,,,,,,104.4074771250016,104.41304454099736,0.0007969170110300183,105.40588516599382,18,1,0.2,0.7,0.5,105.40660658299748,105.4128527080029,105.4128527080029,105.4128527080029,105.4128527080029,106.11283349999576,right,0.6933297920040786,None,right,0.6933297920040786,0.5,0,106.13796712500334,106.14611049999075,106.14611049999075,106.14611049999075,106.14611049999075,108.12171562499134,108.13809741599835,108.14528916600102,108.14528916600102,108.14528916600102,108.14528916600102,108.14528916600102,109.53017995799019,2,1.3823388329910813,None,2,1.3823388329910813,109.53033387499454,109.54110854100145,110.53789849999885,110.52795399999013,105.4128527080029,,,,33706,001,2025-10-29_14h30.22.967,regret_experiment,2024.2.4,118.57889222713618,1,0.2,0.7,0.5,2025-10-29 14h30.41.380348 -0700,
18,0,18,left,1.0466524170042248,None,3,1.9539518340025097,None,18,0,18,0,110.53789849999885,,,,,,,,,110.52863324999635,110.53789849999885,0.007679458998609334,111.52230425000016,19,1,0.2,0.7,0.5,111.52289329099585,111.52946508300374,111.52946508300374,111.52946508300374,111.52946508300374,112.57907829100441,left,1.0466524170042248,None,left,1.0466524170042248,0.2,0,112.60697491599421,112.61542095799814,112.61542095799814,112.61542095799814,112.61542095799814,114.58825162499852,114.60573537499295,114.6142975410039,114.6142975410039,114.6142975410039,114.6142975410039,114.6142975410039,116.5749483749969,3,1.9539518340025097,None,3,1.9539518340025097,116.57531333299994,116.58801762499206,117.5790886659961,117.57228541599761,111.52946508300374,,,,33706,001,2025-10-29_14h30.22.967,regret_experiment,2024.2.4,118.57889222713618,1,0.2,0.7,0.5,2025-10-29 14h30.41.380348 -0700,
19,0,19,left,0.5179041660012444,None,3,1.1410905000084313,None,19,0,19,0,117.5790886659961,,,,,,,,,117.5732334159984,117.5790886659961,0.003967458993429318,118.57115333300317,20,1,0.2,0.7,0.5,118.57167937500344,118.57740662500146,118.57740662500146,118.57740662500146,118.57740662500146,119.10715179100225,left,0.5179041660012444,None,left,0.5179041660012444,0.2,0,119.13877274999686,119.14828149999084,119.14828149999084,119.14828149999084,119.14828149999084,121.11012654099613,121.12433799999417,121.13163837499451,121.13163837499451,121.13163837499451,121.13163837499451,121.13163837499451,122.27968129099463,3,1.1410905000084313,None,3,1.1410905000084313,122.2797489999939,122.28682108299108,123.27753079099057,123.27154879100272,118.57740662500146,,,,33706,001,2025-10-29_14h30.22.967,regret_experiment,2024.2.4,118.57889222713618,1,0.2,0.7,0.5,2025-10-29 14h30.41.380348 -0700,
20,0,20,up,0.3869367500010412,None,3,1.3251712079945719,None,20,0,20,0,123.27753079099057,,,,,,,,,123.27219637499365,123.27753079099057,0.008006000003661029,124.26118299999507,21,1,0.2,0.7,0.5,124.26148341599037,124.2769118330034,124.2769118330034,124.2769118330034,124.2769118330034,124.67216079100035,up,0.3869367500010412,None,up,0.3869367500010412,0.7,0,124.68443608300004,124.69233962499129,124.69233962499129,124.69233962499129,124.69233962499129,126.67753991599602,126.68422100000316,126.69148770799802,126.69148770799802,126.69148770799802,126.69148770799802,126.69148770799802,128.02318233299593,3,1.3251712079945719,None,3,1.3251712079945719,128.02333891599847,128.03235420800047,129.02641649999714,129.02171649999218,124.27010983299988,,,,33706,001,2025-10-29_14h30.22.967,regret_experiment,2024.2.4,118.57889222713618,1,0.2,0.7,0.5,2025-10-29 14h30.41.380348 -0700,
21,0,21,right,1.1021953330055112,None,None,,,21,0,21,0,129.02641649999714,,,,,,,,,129.02197874999547,129.02641649999714,0.0032992079941323027,130.00983466599428,22,1,0.2,0.7,0.5,130.01005095799337,130.02106145799917,130.02106145799917,130.02106145799917,130.02106145799917,131.1285402499925,right,1.1021953330055112,None,right,1.1021953330055112,0.5,1,131.1539092079911,131.16276045799896,131.16276045799896,131.16276045799896,131.16276045799896,133.13818220800022,133.138545875001,,,,,,133.13857662500232,None,,,NA,NA,133.13862558300025,133.14297249999072,134.13747783299186,134.1280457910034,130.02106145799917,,,,33706,001,2025-10-29_14h30.22.967,regret_experiment,2024.2.4,118.57889222713618,1,0.2,0.7,0.5,2025-10-29 14h30.41.380348 -0700,
22,0,22,right,0.7667921660031425,None,2,0.8537929579906631,None,22,0,22,0,134.13747783299186,,,,,,,,,134.1290256249922,134.13747783299186,0.004027624992886558,135.12214145799226,23,1,0.2,0.7,0.5,135.12281270799576,135.12896750000073,135.12896750000073,135.12896750000073,135.12896750000073,135.9066642079997,right,0.7667921660031425,None,right,0.7667921660031425,0.5,0,135.9335962079931,135.95162616600282,135.95162616600282,135.95162616600282,135.95162616600282,137.910382749993,137.9283241249941,137.937318915996,137.937318915996,137.937318915996,137.937318915996,137.937318915996,138.79610379099904,2,0.8537929579906631,None,2,0.8537929579906631,138.79623595799785,138.8078185829945,139.80400637499406,139.79473687500285,135.12896750000073,,,,33706,001,2025-10-29_14h30.22.967,regret_experiment,2024.2.4,118.57889222713618,1,0.2,0.7,0.5,2025-10-29 14h30.41.380348 -0700,
23,0,23,up,0.6280161659960868,None,2,1.659005208988674,None,23,0,23,0,139.80400637499406,,,,,,,,,139.7955307079974,139.80400637499406,-0.0006262499955482781,140.7894011659955,24,1,0.2,0.7,0.5,140.79005062500073,140.795922624995,140.795922624995,140.795922624995,140.795922624995,141.43014383300033,up,0.6280161659960868,None,up,0.6280161659960868,0.7,0,141.45783016599307,141.46572291599296,141.46572291599296,141.46572291599296,141.46572291599296,143.4386390830041,143.45686483300233,143.46429524999985,143.46429524999985,143.46429524999985,143.46429524999985,143.46429524999985,145.13071887499245,2,1.659005208988674,None,2,1.659005208988674,145.1309484999947,145.14420408300066,146.13809708299232,146.1276008749992,140.795922624995,,,,33706,001,2025-10-29_14h30.22.967,regret_experiment,2024.2.4,118.57889222713618,1,0.2,0.7,0.5,2025-10-29 14h30.41.380348 -0700,
24,0,24,left,0.4236154579994036,None,3,0.7670698750007432,None,24,0,24,0,146.13809708299232,,,,,,,,,146.12839158299903,146.13809708299232,0.007273750001331791,147.12220579099085,25,1,0.2,0.7,0.5,147.1228172909905,147.1286739579955,147.1286739579955,147.1286739579955,147.1286739579955,147.55713950000063,left,0.4236154579994036,None,left,0.4236154579994036,0.2,0,147.5845324999973,147.59398158299155,147.59398158299155,147.59398158299155,147.59398158299155,149.56013766599062,149.57689595800184,149.58425366599113,149.58425366599113,149.58425366599113,149.58425366599113,149.58425366599113,150.35705350000353,3,0.7670698750007432,None,3,0.7670698750007432,150.35723999999755,150.36636583300424,151.35993587499252,151.35512654099148,147.1286739579955,,,,33706,001,2025-10-29_14h30.22.967,regret_experiment,2024.2.4,118.57889222713618,1,0.2,0.7,0.5,2025-10-29 14h30.41.380348 -0700,
25,0,25,up,0.7185764579917304,None,None,,,25,0,25,0,151.35993587499252,,,,,,,,,151.35551962499449,151.35993587499252,0.0028353750094538555,152.34445929099456,26,1,0.2,0.7,0.5,152.34495262500423,152.35481079100282,152.35481079100282,152.35481079100282,152.35481079100282,153.07986583300226,up,0.7185764579917304,None,up,0.7185764579917304,0.7,1,153.10554874999798,153.11400366599264,153.11400366599264,153.11400366599264,153.11400366599264,155.0884845410037,155.0890732909902,,,,,,155.08916699999827,None,,,NA,NA,155.0892732499924,155.0944045829965,156.08813566599565,156.0779177499935,152.35481079100282,,,,33706,001,2025-10-29_14h30.22.967,regret_experiment,2024.2.4,118.57889222713618,1,0.2,0.7,0.5,2025-10-29 14h30.41.380348 -0700,
26,0,26,left,0.5843989579880144,None,2,0.9220996249932796,None,26,0,26,0,156.08813566599565,,,,,,,,,156.07888141600415,156.08813566599565,0.004091584007255733,157.07246654099436,27,1,0.2,0.7,0.5,157.07318191599916,157.07925374999468,157.07925374999468,157.07925374999468,157.07925374999468,157.67351662500005,left,0.5843989579880144,None,left,0.5843989579880144,0.2,0,157.7013035830023,157.7094588750042,157.7094588750042,157.7094588750042,157.7094588750042,159.6778030830028,159.69363129099656,159.70108462499047,159.70108462499047,159.70108462499047,159.70108462499047,159.70108462499047,160.62996579099854,2,0.9220996249932796,None,2,0.9220996249932796,160.6301151249936,160.64122283300094,161.6381353750039,161.62778366600105,157.07925374999468,,,,33706,001,2025-10-29_14h30.22.967,regret_experiment,2024.2.4,118.57889222713618,1,0.2,0.7,0.5,2025-10-29 14h30.41.380348 -0700,
27,0,27,up,0.4517108339932747,None,3,1.3153405409975676,None,27,0,27,0,161.6381353750039,,,,,,,,,161.62844879100157,161.6381353750039,0.008133875002386048,162.6221343329962,28,1,0.2,0.7,0.5,162.6227429999999,162.628720875,162.628720875,162.628720875,162.628720875,163.09028829100134,up,0.4517108339932747,None,up,0.4517108339932747,0.7,0,163.11793945799582,163.12575474999903,163.12575474999903,163.12575474999903,163.12575474999903,165.09438287500234,165.11037220800063,165.33224966599664,165.33224966599664,165.33224966599664,165.33224966599664,165.33224966599664,166.65713166599744,3,1.3153405409975676,None,3,1.3153405409975676,166.6573032909946,166.66860837499553,167.6633273329935,167.65587366599357,162.628720875,,,,33706,001,2025-10-29_14h30.22.967,regret_experiment,2024.2.4,118.57889222713618,1,0.2,0.7,0.5,2025-10-29 14h30.41.380348 -0700,
28,0,28,right,0.9441268329974264,None,3,0.7041884999925969,None,28,0,28,0,167.6633273329935,,,,,,,,,167.656781083002,167.6633273329935,-0.00041812501149252057,168.65585158299655,29,1,0.2,0.7,0.5,168.65640254100435,168.6632900830009,168.6632900830009,168.6632900830009,168.6632900830009,169.6135350830009,right,0.9441268329974264,None,right,0.9441268329974264,0.5,0,169.64197216599132,169.65008658300212,169.65008658300212,169.65008658300212,169.65008658300212,171.62179216599907,171.63925137500337,171.64846258299076,171.64846258299076,171.64846258299076,171.64846258299076,171.64846258299076,172.35714566599927,3,0.7041884999925969,None,3,0.7041884999925969,172.35743787499086,172.3697534160019,173.36281283300195,173.35621650000394,168.6632900830009,,,,33706,001,2025-10-29_14h30.22.967,regret_experiment,2024.2.4,118.57889222713618,1,0.2,0.7,0.5,2025-10-29 14h30.41.380348 -0700,
29,0,29,up,0.9016981669992674,None,None,,,29,0,29,0,173.36281283300195,,,,,,,,,173.35698891599895,173.36281283300195,-0.00035170899354852736,174.35539241599326,30,1,0.2,0.7,0.5,174.35603974999685,174.36141012499866,174.36141012499866,174.36141012499866,174.36141012499866,175.27262529099244,up,0.9016981669992674,None,up,0.9016981669992674,0.7,1,175.28567299999122,175.29256999999052,175.29256999999052,175.29256999999052,175.29256999999052,177.27562379099254,177.27601333300117,,,,,,177.27606379099598,None,,,NA,NA,177.27613075000409,177.28797670800122,178.28046637499938,178.2728674999962,174.36141012499866,,,,33706,001,2025-10-29_14h30.22.967,regret_experiment,2024.2.4,118.57889222713618,1,0.2,0.7,0.5,2025-10-29 14h30.41.380348 -0700,
30,0,30,up,0.6817422079911921,None,None,,,30,0,30,0,178.28046637499938,,,,,,,,,178.27360312499513,178.28046637499938,0.004485166005906649,179.2723699999915,31,1,0.2,0.7,0.5,179.27290645799076,179.27814954100177,179.27814954100177,179.27814954100177,179.27814954100177,179.96209579099377,up,0.6817422079911921,None,up,0.6817422079911921,0.7,1,179.98150162499223,179.99369099999603,179.99369099999603,179.99369099999603,179.99369099999603,181.97143900000083,181.9717830409936,,,,,,181.97182466599043,None,,,NA,NA,181.97187545799534,181.97596620800323,182.9702852909977,182.96017254100298,179.27814954100177,,,,33706,001,2025-10-29_14h30.22.967,regret_experiment,2024.2.4,118.57889222713618,1,0.2,0.7,0.5,2025-10-29 14h30.41.380348 -0700,
31,0,31,up,0.5241098340047756,None,None,,,31,0,31,0,182.9702852909977,,,,,,,,,182.96058237500256,182.9702852909977,0.0031200829980662093,183.95410612499109,32,1,0.2,0.7,0.5,183.9543829579925,183.97136862500338,183.97136862500338,183.97136862500338,183.97136862500338,184.50607670799945,up,0.5241098340047756,None,up,0.5241098340047756,0.7,1,184.51731166600075,184.52404833299806,184.52404833299806,184.52404833299806,184.52404833299806,186.5107088329969,186.51142850000178,,,,,,186.51150437499746,None,,,NA,NA,186.51160574999813,186.52191579100327,187.51164741600223,187.50566729099955,183.9584243749996,,,,33706,001,2025-10-29_14h30.22.967,regret_experiment,2024.2.4,118.57889222713618,1,0.2,0.7,0.5,2025-10-29 14h30.41.380348 -0700,
32,0,32,up,0.5037912080006208,None,None,,,32,0,32,0,187.51164741600223,,,,,,,,,187.50635937499464,187.51164741600223,0.00016375000996049494,188.49521249999816,33,1,0.2,0.7,0.5,188.49577995800064,188.50467783299973,188.50467783299973,188.50467783299973,188.50467783299973,189.01311920800072,up,0.5037912080006208,None,up,0.5037912080006208,0.7,1,189.040785374993,189.0493769159948,189.0493769159948,189.0493769159948,189.0493769159948,191.0216943330015,191.02250637499674,,,,,,191.0225961249962,None,,,NA,NA,191.02269958300167,191.02784604098997,192.02159533300437,192.01115129099344,188.50467783299973,,,,33706,001,2025-10-29_14h30.22.967,regret_experiment,2024.2.4,118.57889222713618,1,0.2,0.7,0.5,2025-10-29 14h30.41.380348 -0700,
33,0,33,up,0.3477547910006251,None,None,,,33,0,33,0,192.02159533300437,,,,,,,,,192.0120889999962,192.02159533300437,-0.0009941249882103875,193.00583433300199,34,1,0.2,0.7,0.5,193.00638900000195,193.0124711660028,193.0124711660028,193.0124711660028,193.0124711660028,193.36307504099386,up,0.3477547910006251,None,up,0.3477547910006251,0.7,1,193.38781291600026,193.39557037499617,193.39557037499617,193.39557037499617,193.39557037499617,195.3719241249928,195.37275300000329,,,,,,195.37287224999454,None,,,NA,NA,195.37303387500287,195.37839754100423,196.37985687499167,196.37249558299663,193.0124711660028,,,,33706,001,2025-10-29_14h30.22.967,regret_experiment,2024.2.4,118.57889222713618,1,0.2,0.7,0.5,2025-10-29 14h30.41.380348 -0700,
34,0,34,up,0.8523970829992322,None,None,,,34,0,34,0,196.37985687499167,,,,,,,,,196.37351745799242,196.37985687499167,0.000581874992349185,197.37221454099927,35,1,0.2,0.7,0.5,197.3728605829965,197.37913829099853,197.37913829099853,197.37913829099853,197.37913829099853,198.24099670800206,up,0.8523970829992322,None,up,0.8523970829992322,0.7,1,198.25519145799626,198.26219658300397,198.26219658300397,198.26219658300397,198.26219658300397,200.24508054100443,200.24576045799768,,,,,,200.2458394159912,None,,,NA,NA,200.2460037080018,200.2550203330029,201.24660216599295,201.23940199999197,197.37913829099853,,,,33706,001,2025-10-29_14h30.22.967,regret_experiment,2024.2.4,118.57889222713618,1,0.2,0.7,0.5,2025-10-29 14h30.41.380348 -0700,
35,0,35,up,1.0977905409963569,None,None,,,35,0,35,0,201.24660216599295,,,,,,,,,201.24062974999833,201.24660216599295,0.0007397919980576262,202.23921687499387,36,1,0.2,0.7,0.5,202.2397709999932,202.2457521250035,202.2457521250035,202.2457521250035,202.2457521250035,203.34737845799827,up,1.0977905409963569,None,up,1.0977905409963569,0.7,1,203.37691812499543,203.3859009579901,203.3859009579901,203.3859009579901,203.3859009579901,205.35549304100277,205.35616962499626,,,,,,205.35627983299491,None,,,NA,NA,205.35644487499667,205.3618630830024,206.3633887909964,206.35586983300163,202.2457521250035,,,,33706,001,2025-10-29_14h30.22.967,regret_experiment,2024.2.4,118.57889222713618,1,0.2,0.7,0.5,2025-10-29 14h30.41.380348 -0700,
36,0,36,up,0.7281724579952424,None,None,,,36,0,36,0,206.3633887909964,,,,,,,,,206.35669866600074,206.3633887909964,0.00036941700091119856,207.35614229099883,37,1,0.2,0.7,0.5,207.35683233299642,207.362688291003,207.362688291003,207.362688291003,207.362688291003,208.09701666599722,up,0.7281724579952424,None,up,0.7281724579952424,0.7,0,208.1288736659917,208.13702491599543,208.13702491599543,208.13702491599543,208.13702491599543,210.1054572909925,210.10619829100324,,,,,,210.10633620800218,None,,,NA,NA,210.10647079099726,210.11181212500378,211.11335095799586,211.10624333299347,207.362688291003,,,,33706,001,2025-10-29_14h30.22.967,regret_experiment,2024.2.4,118.57889222713618,1,0.2,0.7,0.5,2025-10-29 14h30.41.380348 -0700,
37,0,37,left,0.6465847500076052,None,None,,,37,0,37,0,211.11335095799586,,,,,,,,,211.10712362499908,211.11335095799586,0.0007507499976782128,212.10610270799953,38,1,0.2,0.7,0.5,212.10700508300215,212.11279937499785,212.11279937499785,212.11279937499785,212.11279937499785,212.76396691599803,left,0.6465847500076052,None,left,0.6465847500076052,0.2,0,212.79200083299656,212.8020913329965,212.8020913329965,212.8020913329965,212.8020913329965,214.77200949999678,214.77275066600123,,,,,,214.77286899999308,None,,,NA,NA,214.77300720800122,214.77835624999716,215.7798243330035,215.7727423329925,212.11279937499785,,,,33706,001,2025-10-29_14h30.22.967,regret_experiment,2024.2.4,118.57889222713618,1,0.2,0.7,0.5,2025-10-29 14h30.41.380348 -0700,
38,0,38,up,0.6776037910021842,None,None,,,38,0,38,0,215.7798243330035,,,,,,,,,215.77362745799473,215.7798243330035,0.0007119160000002012,216.7727407909988,39,1,0.2,0.7,0.5,216.77329733299848,216.77925333299208,216.77925333299208,216.77925333299208,216.77925333299208,217.46311770800094,up,0.6776037910021842,None,up,0.6776037910021842,0.7,0,217.49011016599252,217.49812658299925,217.49812658299925,217.49812658299925,217.49812658299925,219.47207383299246,219.47288270799618,,,,,,219.47297637499287,None,,,NA,NA,219.47310920800373,219.47842204099288,220.48031783300394,220.47284595799283,216.77925333299208,,,,33706,001,2025-10-29_14h30.22.967,regret_experiment,2024.2.4,118.57889222713618,1,0.2,0.7,0.5,2025-10-29 14h30.41.380348 -0700,
39,0,39,right,0.5999109580006916,None,None,,,39,0,39,0,220.48031783300394,,,,,,,,,220.4737086660025,220.48031783300394,0.0006964170024730265,221.4726719159953,40,1,0.2,0.7,0.5,221.47346270800335,221.47953275000327,221.47953275000327,221.47953275000327,221.47953275000327,222.09016729099676,right,0.5999109580006916,None,right,0.5999109580006916,0.5,0,222.11671604099683,222.12612458299554,222.12612458299554,222.12612458299554,222.12612458299554,224.09426458299276,224.09491420799168,,,,,,224.0950204999972,None,,,NA,NA,224.09513766599412,224.10509829099465,225.09630416599975,225.08945099999255,221.47953275000327,,,,33706,001,2025-10-29_14h30.22.967,regret_experiment,2024.2.4,118.57889222713618,1,0.2,0.7,0.5,2025-10-29 14h30.41.380348 -0700,
40,0,40,up,0.4182762910058955,None,None,,,40,0,40,0,225.09630416599975,,,,,,,,,225.09044025000185,225.09630416599975,0.0012993749987799674,226.08908641600283,41,1,0.2,0.7,0.5,226.08972104100394,226.09538816599525,226.09538816599525,226.09538816599525,226.09538816599525,226.52413083300053,up,0.4182762910058955,None,up,0.4182762910058955,0.7,1,226.54997720799292,226.5585968749947,226.5585968749947,226.5585968749947,226.5585968749947,228.52774579099787,228.52833783299138,,,,,,228.5284367909917,None,,,NA,NA,228.5286217499961,228.53845987499517,229.5292855000007,229.52273199999763,226.09538816599525,,,,33706,001,2025-10-29_14h30.22.967,regret_experiment,2024.2.4,118.57889222713618,1,0.2,0.7,0.5,2025-10-29 14h30.41.380348 -0700,
41,0,41,up,0.5826043749984819,None,None,,,41,0,41,0,229.5292855000007,,,,,,,,,229.52357316599227,229.5292855000007,0.0007987920107552782,230.52278845799447,42,1,0.2,0.7,0.5,230.52333445799013,230.52993108300143,230.52993108300143,230.52993108300143,230.52993108300143,231.12451637499908,up,0.5826043749984819,None,up,0.5826043749984819,0.7,0,231.15577179100364,231.16499874999863,231.16499874999863,231.16499874999863,231.16499874999863,233.1280399160023,233.12875716599228,,,,,,233.12883645799593,None,,,NA,NA,233.12899012499838,233.13842862499587,234.1295492079953,234.1227546250011,230.52993108300143,,,,33706,001,2025-10-29_14h30.22.967,regret_experiment,2024.2.4,118.57889222713618,1,0.2,0.7,0.5,2025-10-29 14h30.41.380348 -0700,
42,0,42,left,0.5444152499985648,None,None,,,42,0,42,0,234.1295492079953,,,,,,,,,234.12367916599032,234.1295492079953,0.0007012080022832379,235.12258974999713,43,1,0.2,0.7,0.5,235.12309591600206,235.12919858300302,235.12919858300302,235.12919858300302,235.12919858300302,235.6802189579903,left,0.5444152499985648,None,left,0.5444152499985648,0.2,0,235.7069309159997,235.71581258300284,235.71581258300284,235.71581258300284,235.71581258300284,237.68842233299802,237.68885479099117,,,,,,237.68900870799553,None,,,NA,NA,237.68922112499422,237.6945065829932,238.6935703749914,238.68822645799082,235.12919858300302,,,,33706,001,2025-10-29_14h30.22.967,regret_experiment,2024.2.4,118.57889222713618,1,0.2,0.7,0.5,2025-10-29 14h30.41.380348 -0700,
43,0,43,right,1.2478689999989,None,None,,,43,0,43,0,238.6935703749914,,,,,,,,,238.68865958300012,238.6935703749914,-0.0004926670080749318,239.67811125000298,44,1,0.2,0.7,0.5,239.67845029100135,239.6882071250002,239.6882071250002,239.6882071250002,239.6882071250002,240.93965512499562,right,1.2478689999989,None,right,1.2478689999989,0.5,0,240.95352262500091,240.95997408300173,240.95997408300173,240.95997408300173,240.95997408300173,242.94493316599983,242.94558358300128,,,,,,242.94565783299913,None,,,NA,NA,242.94575883299694,242.9551360829937,243.94428858299216,243.93924441600393,239.6882071250002,,,,33706,001,2025-10-29_14h30.22.967,regret_experiment,2024.2.4,118.57889222713618,1,0.2,0.7,0.5,2025-10-29 14h30.41.380348 -0700,
44,0,44,up,0.7845889589953003,None,None,,,44,0,44,0,243.94428858299216,,,,,,,,,243.93993391600088,243.94428858299216,0.00925775000359863,244.92802329099504,45,1,0.2,0.7,0.5,244.92851037500077,244.94430883300083,244.94430883300083,244.94430883300083,244.94430883300083,245.73948725000082,up,0.7845889589953003,None,up,0.7845889589953003,0.7,1,245.7667554159998,245.77486574999057,245.77486574999057,245.77486574999057,245.77486574999057,247.74424158300098,247.7449344159977,,,,,,247.74502224999014,None,,,NA,NA,247.74514283299504,247.7550833330024,248.7459443330008,248.73941920799552,244.93847812499735,,,,33706,001,2025-10-29_14h30.22.967,regret_experiment,2024.2.4,118.57889222713618,1,0.2,0.7,0.5,2025-10-29 14h30.41.380348 -0700,
45,0,45,up,0.3096534590004012,None,None,,,45,0,45,0,248.7459443330008,,,,,,,,,248.74029087499366,248.7459443330008,0.0009423339943168685,249.73978366599476,46,1,0.2,0.7,0.5,249.740404665994,249.74666995799635,249.74666995799635,249.74666995799635,249.74666995799635,250.06336829099746,up,0.3096534590004012,None,up,0.3096534590004012,0.7,1,250.0890897079953,250.09855108299234,250.09855108299234,250.09855108299234,250.09855108299234,252.0720122079947,252.0729229159915,,,,,,252.07304991599813,None,,,NA,NA,252.07318529099575,252.0788525829994,253.0806955829903,253.0729894160031,249.74666995799635,,,,33706,001,2025-10-29_14h30.22.967,regret_experiment,2024.2.4,118.57889222713618,1,0.2,0.7,0.5,2025-10-29 14h30.41.380348 -0700,
46,0,46,up,0.6563629169977503,None,None,,,46,0,46,0,253.0806955829903,,,,,,,,,253.07390837499406,253.0806955829903,0.0008159170101862401,254.07290720799938,47,1,0.2,0.7,0.5,254.07356266600254,254.0797642910038,254.0797642910038,254.0797642910038,254.0797642910038,254.7404151249939,up,0.6563629169977503,None,up,0.6563629169977503,0.7,1,254.7671393329947,254.77553929100395,254.77553929100395,254.77553929100395,254.77553929100395,256.7445827499905,256.74535758300044,,,,,,256.74546787499276,None,,,NA,NA,256.74560841599305,256.75517074999516,257.7468400409998,257.7400462910009,254.0797642910038,,,,33706,001,2025-10-29_14h30.22.967,regret_experiment,2024.2.4,118.57889222713618,1,0.2,0.7,0.5,2025-10-29 14h30.41.380348 -0700,
47,0,47,up,0.4641472499934025,None,None,,,47,0,47,0,257.7468400409998,,,,,,,,,257.74098870799935,257.7468400409998,0.001376999993226491,258.7388113329944,48,1,0.2,0.7,0.5,258.73920233300305,258.7447224579955,258.7447224579955,258.7447224579955,258.7447224579955,259.2132572499977,up,0.4641472499934025,None,up,0.4641472499934025,0.7,1,259.24087845800386,259.2487324160029,259.2487324160029,259.2487324160029,259.2487324160029,261.2222283750016,261.22298299999966,,,,,,261.22309400000086,None,,,NA,NA,261.2232380829955,261.22864858299727,262.229894707998,262.22250212499057,258.7447224579955,,,,33706,001,2025-10-29_14h30.22.967,regret_experiment,2024.2.4,118.57889222713618,1,0.2,0.7,0.5,2025-10-29 14h30.41.380348 -0700,
48,0,48,up,0.5379981669975678,None,None,,,48,0,48,0,262.229894707998,,,,,,,,,262.22345108300215,262.229894707998,0.00029470799199771136,263.22280620799575,49,1,0.2,0.7,0.5,263.2234789579961,263.22992699999304,263.22992699999304,263.22992699999304,263.22992699999304,263.77419233300316,up,0.5379981669975678,None,up,0.5379981669975678,0.7,0,263.8025462499936,263.81107599999814,263.81107599999814,263.81107599999814,263.81107599999814,265.77831841599254,265.7788579159969,,,,,,265.77890779099835,None,,,NA,NA,265.77898191599525,265.788408583001,266.77947912499076,266.77303337499325,263.22992699999304,,,,33706,001,2025-10-29_14h30.22.967,regret_experiment,2024.2.4,118.57889222713618,1,0.2,0.7,0.5,2025-10-29 14h30.41.380348 -0700,
49,0,49,up,0.49345387499488425,None,None,,,49,0,49,0,266.77947912499076,,,,,,,,,266.77399729099125,266.77947912499076,0.0006136250012787059,267.7727633329923,50,1,0.2,0.7,0.5,267.7735564159957,267.77997999999207,267.77997999999207,267.77997999999207,267.77997999999207,268.2807707500033,up,0.49345387499488425,None,up,0.49345387499488425,0.7,0,268.30980516599084,268.3182945000008,268.3182945000008,268.3182945000008,268.3182945000008,270.28895387500233,270.28949358299724,,,,,,270.28958091599634,None,,,NA,NA,270.28969833299925,270.2948312499939,271.28818799999135,271.2779994159937,267.77997999999207,,,,33706,001,2025-10-29_14h30.22.967,regret_experiment,2024.2.4,118.57889222713618,1,0.2,0.7,0.5,2025-10-29 14h30.41.380348 -0700,
50,0,50,right,0.48818858299637213,None,None,,,50,0,50,0,271.28818799999135,,,,,,,,,271.27863670799707,271.28818799999135,0.0036709160049213096,272.2729475410015,51,1,0.2,0.7,0.5,272.2735284160008,272.2797381249984,272.2797381249984,272.2797381249984,272.2797381249984,272.77407266599766,right,0.48818858299637213,None,right,0.48818858299637213,0.5,0,272.8009179579967,272.80897870799527,272.80897870799527,272.80897870799527,272.80897870799527,274.7774034579925,274.77800845800084,,,,,,274.77808308300155,None,,,NA,NA,274.7781832500041,274.78884012499475,275.7800489999936,275.7729078330012,272.2797381249984,,,,33706,001,2025-10-29_14h30.22.967,regret_experiment,2024.2.4,118.57889222713618,1,0.2,0.7,0.5,2025-10-29 14h30.41.380348 -0700,
51,0,51,left,1.2068598330079112,None,None,,,51,0,51,0,275.7800489999936,,,,,,,,,275.7739464999904,275.7800489999936,0.001993749989196658,276.77288533299,52,1,0.2,0.7,0.5,276.77333524999267,276.7786654579977,276.7786654579977,276.7786654579977,276.7786654579977,277.99076849999256,left,1.2068598330079112,None,left,1.2068598330079112,0.2,0,278.01842587499414,278.02717349999875,278.02717349999875,278.02717349999875,278.02717349999875,279.9937533749908,279.99442616599845,,,,,,279.9945209580037,None,,,NA,NA,279.9946334999986,280.00539029100037,280.99571783299325,280.9895813329931,276.7786654579977,,,,33706,001,2025-10-29_14h30.22.967,regret_experiment,2024.2.4,118.57889222713618,1,0.2,0.7,0.5,2025-10-29 14h30.41.380348 -0700,
52,0,52,up,0.41077508400485385,None,None,,,52,0,52,0,280.99571783299325,,,,,,,,,280.99035841599107,280.99571783299325,0.0012070420052623376,281.9895148749929,53,1,0.2,0.7,0.5,281.99017624999397,281.9962530829944,281.9962530829944,281.9962530829944,281.9962530829944,282.4145919159928,up,0.41077508400485385,None,up,0.41077508400485385,0.7,1,282.4418947910017,282.45035649999045,282.45035649999045,282.45035649999045,282.45035649999045,284.4220205409947,284.42243366599723,,,,,,284.422474291001,None,,,NA,NA,284.4225408749917,284.4271022909961,285.42121508299897,285.4117651659908,281.9962530829944,,,,33706,001,2025-10-29_14h30.22.967,regret_experiment,2024.2.4,118.57889222713618,1,0.2,0.7,0.5,2025-10-29 14h30.41.380348 -0700,
53,0,53,up,0.4766844590049004,None,None,,,53,0,53,0,285.42121508299897,,,,,,,,,285.4127815410029,285.42121508299897,0.0037025829951744527,286.40651845799584,54,1,0.2,0.7,0.5,286.4071154580015,286.41395370799,286.41395370799,286.41395370799,286.41395370799,286.8947102499951,up,0.4766844590049004,None,up,0.4766844590049004,0.7,0,286.9080402079999,286.9153014159965,286.9153014159965,286.9153014159965,286.9153014159965,288.90557145800267,288.90597170799447,,,,,,288.9060037500021,None,,,NA,NA,288.9060972909938,288.9106625409913,289.90513895799813,289.894608290997,286.41395370799,,,,33706,001,2025-10-29_14h30.22.967,regret_experiment,2024.2.4,118.57889222713618,1,0.2,0.7,0.5,2025-10-29 14h30.41.380348 -0700,
54,0,54,left,0.3602313339943066,None,None,,,54,0,54,0,289.90513895799813,,,,,,,,,289.89527962499415,289.90513895799813,-0.000846791997901164,290.889305040997,55,1,0.2,0.7,0.5,290.8898767079954,290.8962287079921,290.8962287079921,290.8962287079921,290.8962287079921,291.2632237499929,left,0.3602313339943066,None,left,0.3602313339943066,0.2,0,291.29000079099205,291.2981568749965,291.2981568749965,291.2981568749965,291.2981568749965,293.2722394579905,293.27286670799367,,,,,,293.27296579099493,None,,,NA,NA,293.273077165999,293.2782257910003,294.2759122080024,294.2711479999998,290.8962287079921,,,,33706,001,2025-10-29_14h30.22.967,regret_experiment,2024.2.4,118.57889222713618,1,0.2,0.7,0.5,2025-10-29 14h30.41.380348 -0700,
55,0,55,up,0.727792750010849,None,None,,,55,0,55,0,294.2759122080024,,,,,,,,,294.2715798749996,294.2759122080024,0.0029262500029290095,295.25904699999955,56,1,0.2,0.7,0.5,295.2593500410003,295.2717884579906,295.2717884579906,295.2717884579906,295.2717884579906,296.0061497909919,up,0.727792750010849,None,up,0.727792750010849,0.7,0,296.01946924999356,296.0259962909913,296.0259962909913,296.0259962909913,296.0259962909913,298.01157274999423,298.01211937499465,,,,,,298.0121510829922,None,,,NA,NA,298.01220220800315,298.0217535409902,299.0128104579926,299.0064139159949,295.2717884579906,,,,33706,001,2025-10-29_14h30.22.967,regret_experiment,2024.2.4,118.57889222713618,1,0.2,0.7,0.5,2025-10-29 14h30.41.380348 -0700,
56,0,56,right,0.9615979169902857,None,None,,,56,0,56,0,299.0128104579926,,,,,,,,,299.0071662499977,299.0128104579926,0.0007016659947112203,300.0061754999915,57,1,0.2,0.7,0.5,300.00674945799983,300.01379595800245,300.01379595800245,300.01379595800245,300.01379595800245,300.9771954159951,right,0.9615979169902857,None,right,0.9615979169902857,0.5,0,300.9918757080013,301.0006695829943,301.0006695829943,301.0006695829943,301.0006695829943,302.977954624992,302.9786450410029,,,,,,302.9787314999994,None,,,NA,NA,302.9788454579975,302.9887442909967,303.9788522079907,303.97279374999925,300.01379595800245,,,,33706,001,2025-10-29_14h30.22.967,regret_experiment,2024.2.4,118.57889222713618,1,0.2,0.7,0.5,2025-10-29 14h30.41.380348 -0700,
57,0,57,up,0.45340062500326894,None,None,,,57,0,57,0,303.9788522079907,,,,,,,,,303.9734785000037,303.9788522079907,0.00013025000225752592,304.97283483299543,58,1,0.2,0.7,0.5,304.9734893749992,304.97927266599436,304.97927266599436,304.97927266599436,304.97927266599436,305.440963999994,up,0.45340062500326894,None,up,0.45340062500326894,0.7,1,305.4668209999945,305.47496266599046,305.47496266599046,305.47496266599046,305.47496266599046,307.44450466599665,307.4452758330008,,,,,,307.44539516599616,None,,,NA,NA,307.44558916600363,307.4553892499971,308.44620670800214,308.4398276659922,304.97927266599436,,,,33706,001,2025-10-29_14h30.22.967,regret_experiment,2024.2.4,118.57889222713618,1,0.2,0.7,0.5,2025-10-29 14h30.41.380348 -0700,
58,0,58,left,0.48267183400457725,None,None,,,58,0,58,0,308.44620670800214,,,,,,,,,308.44089162499586,308.44620670800214,0.0007752500096103176,309.43914424999093,59,1,0.2,0.7,0.5,309.43967816600343,309.44560537500365,309.44560537500365,309.44560537500365,309.44560537500365,309.9316935829993,left,0.48267183400457725,None,left,0.48267183400457725,0.2,0,309.9597825410019,309.96905029099435,309.96905029099435,309.96905029099435,309.96905029099435,311.9390122909972,311.93960949999746,,,,,,311.9397014159913,None,,,NA,NA,311.93983950000256,311.9450383749936,312.93824408299406,312.9284053750016,309.44560537500365,,,,33706,001,2025-10-29_14h30.22.967,regret_experiment,2024.2.4,118.57889222713618,1,0.2,0.7,0.5,2025-10-29 14h30.41.380348 -0700,
59,0,59,up,0.8781085000082385,None,None,,,59,0,59,0,312.93824408299406,,,,,,,,,312.929411249992,312.93824408299406,0.003912499989382923,313.92269191599917,60,1,0.2,0.7,0.5,313.92319245799445,313.9387013329979,313.9387013329979,313.9387013329979,313.9387013329979,314.82434150000336,up,0.8781085000082385,None,up,0.8781085000082385,0.7,1,314.85073554099654,314.85965195800236,314.85965195800236,314.85965195800236,314.85965195800236,316.8284992080007,316.8291494580044,,,,,,316.8292395000026,None,,,NA,NA,316.8293698329944,316.8387005830009,317.877918750004,317.8230059579946,313.9281667079922,,,,33706,001,2025-10-29_14h30.22.967,regret_experiment,2024.2.4,118.57889222713618,1,0.2,0.7,0.5,2025-10-29 14h30.41.380348 -0700,
,,,,,,,,,,,,,,,,,,,,,,,,,,,,,,,,,,,,,,,,,,,,,,,,,,,,,,,,,,,,,,,,,,,N/A,317.86614545799966,317.877918750004,,,,,,,,,,,,
