thisN,thisTrialN,thisRepN,key_resp_1.keys,key_resp_1.rt,key_resp_1.duration,regret_key.keys,regret_key.rt,regret_key.duration,trials.thisRepN,trials.thisTrialN,trials.thisN,trials.thisIndex,thisRow.t,notes,begin_exp.started,begin.started,advance_key.started,begin_exp.stopped,advance_key.keys,advance_key.rt,advance_key.duration,Fixation.started,fixcross.started,etRecord.started,Fixation.stopped,trial_num,participant_cond,prob_left,prob_up,prob_right,Choice.started,tree1_img.started,tree2_img.started,tree3_img.started,key_resp_1.started,Choice.stopped,trials.key_resp_1.keys,trials.key_resp_1.rt,trials.key_resp_1.duration,choice_key,choice_rt,choice_prob,points,Feedback.started,appleImage.started,tree1.started,tree2.started,tree3.started,Feedback.stopped,RegretRating.started,regret_scale.started,regret_key.started,rtree1.started,rtree2.started,rtree3.started,RegretRating.stopped,trials.regret_key.keys,trials.regret_key.rt,trials.regret_key.duration,regret_rating,regret_rt,ITI.started,blank_screen.started,ITI.stopped,blank_screen.stopped,fixcross.stopped,avg_regret,EndScreen.started,end_display.started,participant,session,date,expName,psychopyVersion,frameRate,participant_cond,prob_left,prob_up,prob_right,expStart,
,,,,,,,,,,,,,,,0.07554024999262765,0.14924345799954608,0.14924345799954608,23.1534722080105,space,22.968727833009325,None,,,,,,1,0.5,0.7,0.2,,,,,,,,,,,,,,,,,,,,,,,,,,,,,,,,,,,,,,,,33775,001,2025-11-11_18h13.58.276,regret_experiment,2024.2.4,None,1,0.5,0.7,0.2,2025-11-11 18h14.11.129705 -0800,
0,0,0,up,1.3874832919682376,None,1,3.838974291982595,None,0,0,0,0,23.710602500010282,,,,,,,,,23.166466999973636,23.710602500010282,0.012947874958626926,24.157457916007843,1,1,0.5,0.7,0.2,24.158161374973133,24.189293708011974,24.189293708011974,24.189293708011974,24.189293708011974,25.58190204098355,up,1.3874832919682376,None,up,1.3874832919682376,0.7,0,25.62294487498002,25.642092416004743,25.642092416004743,25.642092416004743,25.642092416004743,27.59059758298099,27.597486625018064,27.605439666018356,27.605439666018356,27.605439666018356,27.605439666018356,27.605439666018356,31.447955165989697,1,3.838974291982595,None,1,3.838974291982595,31.44810416601831,31.463237291027326,32.45639054098865,,,,,,33775,001,2025-11-11_18h13.58.276,regret_experiment,2024.2.4,None,1,0.5,0.7,0.2,2025-11-11 18h14.11.129705 -0800,
1,0,1,right,1.0465556670096703,None,1,1.9774963749805465,None,1,0,1,0,32.462813166028354,,,,,,,,,32.457320916000754,32.462813166028354,0.009300917037762702,33.45720337500097,2,1,0.5,0.7,0.2,33.45785291597713,33.46260066598188,33.46260066598188,33.46260066598188,33.46260066598188,34.51341025001602,right,1.0465556670096703,None,right,1.0465556670096703,0.2,0,34.52589391602669,34.53347916598432,34.53347916598432,34.53347916598432,34.53347916598432,36.5237729580258,36.53212520800298,36.5404988329974,36.5404988329974,36.5404988329974,36.5404988329974,36.5404988329974,38.530266290996224,1,1.9774963749805465,None,1,1.9774963749805465,38.53035037498921,38.53906366601586,39.524709665973205,39.53013770800317,,,,,33775,001,2025-11-11_18h13.58.276,regret_experiment,2024.2.4,None,1,0.5,0.7,0.2,2025-11-11 18h14.11.129705 -0800,
2,0,2,left,0.602830666990485,None,1,1.988209041999653,None,2,0,2,0,39.53013770800317,,,,,,,,,39.52528516598977,39.53013770800317,-0.00013195897918194532,40.524498041020706,3,1,0.5,0.7,0.2,40.52505875000497,40.5303769580205,40.5303769580205,40.5303769580205,40.5303769580205,41.14165241603041,left,0.602830666990485,None,left,0.602830666990485,0.5,0,41.15610424999613,41.16496037499746,41.16496037499746,41.16496037499746,41.16496037499746,43.14599620801164,43.15286295802798,43.16048541601049,43.16048541601049,43.16048541601049,43.16048541601049,43.16048541601049,45.15793174999999,1,1.988209041999653,None,1,1.988209041999653,45.15801354101859,45.166000749974046,46.157336250005756,46.1623524579918,40.5303769580205,,,,33775,001,2025-11-11_18h13.58.276,regret_experiment,2024.2.4,None,1,0.5,0.7,0.2,2025-11-11 18h14.11.129705 -0800,
3,0,3,up,0.6810045830206946,None,1,2.7175295000197366,None,3,0,3,0,46.1623524579918,,,,,,,,,46.15768120798748,46.1623524579918,-0.00028141698567196727,47.15715458302293,4,1,0.5,0.7,0.2,47.15754320798442,47.1626953749801,47.1626953749801,47.1626953749801,47.1626953749801,47.84732191602234,up,0.6810045830206946,None,up,0.6810045830206946,0.7,0,47.862224791024346,47.86908037500689,47.86908037500689,47.86908037500689,47.86908037500689,49.85649170802208,49.864861665992066,49.870871208026074,49.870871208026074,49.870871208026074,49.870871208026074,49.870871208026074,52.591574124991894,1,2.7175295000197366,None,1,2.7175295000197366,52.59164875000715,52.59613137500128,53.59052874997724,53.595655583019834,47.1626953749801,,,,33775,001,2025-11-11_18h13.58.276,regret_experiment,2024.2.4,None,1,0.5,0.7,0.2,2025-11-11 18h14.11.129705 -0800,
4,0,4,left,1.0081274170079269,None,None,,,4,0,4,0,53.595655583019834,,,,,,,,,53.59090912499232,53.595655583019834,-0.000692416972015053,54.58999424998183,5,1,0.5,0.7,0.2,54.59056020801654,54.59557725000195,54.59557725000195,54.59557725000195,54.59557725000195,55.60838012502063,left,1.0081274170079269,None,left,1.0081274170079269,0.5,1,55.62236199999461,55.62927416601451,55.62927416601451,55.62927416601451,55.62927416601451,57.61700516601559,57.631127708009444,,,,,,57.63122766598826,None,,,NA,NA,57.631358041020576,57.63954854098847,58.62383745802799,58.62908895802684,54.59557725000195,,,,33775,001,2025-11-11_18h13.58.276,regret_experiment,2024.2.4,None,1,0.5,0.7,0.2,2025-11-11 18h14.11.129705 -0800,
5,0,5,left,1.0221946249948815,None,None,,,5,0,5,0,58.62908895802684,,,,,,,,,58.62439291598275,58.62908895802684,0.008145542000420392,59.62354591599433,6,1,0.5,0.7,0.2,59.624076874984894,59.62970595801016,59.62970595801016,59.62970595801016,59.62970595801016,60.65817887498997,left,1.0221946249948815,None,left,1.0221946249948815,0.5,1,60.67274275003001,60.68830133299343,60.68830133299343,60.68830133299343,60.68830133299343,62.66159658302786,62.66220995801268,,,,,,62.662257291027345,None,,,NA,NA,62.66234954097308,62.67271116602933,63.65719804097898,63.661921666003764,59.62970595801016,,,,33775,001,2025-11-11_18h13.58.276,regret_experiment,2024.2.4,None,1,0.5,0.7,0.2,2025-11-11 18h14.11.129705 -0800,
6,0,6,left,0.5442497910116799,None,None,,,6,0,6,0,63.661921666003764,,,,,,,,,63.65753283299273,63.661921666003764,-0.00033362500835210085,64.65655137499562,7,1,0.5,0.7,0.2,64.65678179101087,64.66749408299802,64.66749408299802,64.66749408299802,64.66749408299802,65.21366570802638,left,0.5442497910116799,None,left,0.5442497910116799,0.5,1,65.23209458298516,65.23937837500125,65.23937837500125,65.23937837500125,65.23937837500125,67.22257320798235,67.2241794160218,,,,,,67.22421333298553,None,,,NA,NA,67.22425904101692,67.22816866601352,68.2297669579857,68.23519470798783,64.66749408299802,,,,33775,001,2025-11-11_18h13.58.276,regret_experiment,2024.2.4,None,1,0.5,0.7,0.2,2025-11-11 18h14.11.129705 -0800,
7,0,7,left,1.0091162090539,None,1,2.630407665972598,None,7,0,7,0,68.23519470798783,,,,,,,,,68.23027812497457,68.23519470798783,0.0060530410264618695,69.22294041601708,8,1,0.5,0.7,0.2,69.22319304099074,69.23410200001672,69.23410200001672,69.23410200001672,69.23410200001672,70.2464419999742,left,1.0091162090539,None,left,1.0091162090539,0.5,0,70.26001854101196,70.26651770801982,70.26651770801982,70.26651770801982,70.26651770801982,72.26143829099601,72.28175999998348,72.29456479102373,72.29456479102373,72.29456479102373,72.29456479102373,72.29456479102373,74.9366010830272,1,2.630407665972598,None,1,2.630407665972598,74.9369704159908,74.94209262501681,75.92729187500663,75.93876845802879,69.23410200001672,,,,33775,001,2025-11-11_18h13.58.276,regret_experiment,2024.2.4,None,1,0.5,0.7,0.2,2025-11-11 18h14.11.129705 -0800,
8,0,8,right,0.8580950000323355,None,None,,,8,0,8,0,75.93876845802879,,,,,,,,,75.92794591601705,75.93876845802879,0.001996333012357354,76.92259662499418,9,1,0.5,0.7,0.2,76.92307258298388,76.92801049997797,76.92801049997797,76.92801049997797,76.92801049997797,77.79044133302523,right,0.8580950000323355,None,right,0.8580950000323355,0.2,1,77.80874341598246,77.81838412501384,77.81838412501384,77.81838412501384,77.81838412501384,79.79336766601773,79.79371150000952,,,,,,79.79375225002877,None,,,NA,NA,79.79381837497931,79.80533649999416,80.78911079099635,80.79415091598639,76.92801049997797,,,,33775,001,2025-11-11_18h13.58.276,regret_experiment,2024.2.4,None,1,0.5,0.7,0.2,2025-11-11 18h14.11.129705 -0800,
9,0,9,right,1.2404657499864697,None,None,,,9,0,9,0,80.79415091598639,,,,,,,,,80.78963937499793,80.79415091598639,0.0004036659956909716,81.78926054097246,10,1,0.5,0.7,0.2,81.7896697500255,81.794222040975,81.794222040975,81.794222040975,81.794222040975,83.03974191599991,right,1.2404657499864697,None,right,1.2404657499864697,0.2,1,83.051612958021,83.05850945797283,83.05850945797283,83.05850945797283,83.05850945797283,85.04374358302448,85.04432683298364,,,,,,85.04436724999687,None,,,NA,NA,85.044410625007,85.05511575000128,86.03867350000655,86.04310383298434,81.794222040975,,,,33775,001,2025-11-11_18h13.58.276,regret_experiment,2024.2.4,None,1,0.5,0.7,0.2,2025-11-11 18h14.11.129705 -0800,
10,0,10,right,0.8134530839743093,None,1,1.8798358329804614,None,10,0,10,0,86.04310383298434,,,,,,,,,86.03905204101466,86.04310383298434,0.009871750022284687,87.02687270799652,11,1,0.5,0.7,0.2,87.02724570798455,87.0446585000027,87.0446585000027,87.0446585000027,87.0446585000027,87.86165650002658,right,0.8134530839743093,None,right,0.8134530839743093,0.2,0,87.87549512501573,87.88199504098156,87.88199504098156,87.88199504098156,87.88199504098156,89.86190091597382,89.86943279101979,89.87729033298092,89.87729033298092,89.87729033298092,89.87729033298092,89.87729033298092,91.76585716602858,1,1.8798358329804614,None,1,1.8798358329804614,91.76592074998189,91.77227879100246,92.75921833299799,92.77142991602886,87.03907941601938,,,,33775,001,2025-11-11_18h13.58.276,regret_experiment,2024.2.4,None,1,0.5,0.7,0.2,2025-11-11 18h14.11.129705 -0800,
11,0,11,up,0.7220159160206094,None,None,,,11,0,11,0,92.77142991602886,,,,,,,,,92.75966337497812,92.77142991602886,0.005577416974119842,93.75497320800787,12,1,0.5,0.7,0.2,93.7557495830115,93.76028833299642,93.76028833299642,93.76028833299642,93.76028833299642,94.4893223749823,up,0.7220159160206094,None,up,0.7220159160206094,0.7,1,94.50140866602305,94.50882200000342,94.50882200000342,94.50882200000342,94.50882200000342,96.49272304098122,96.49324762501055,,,,,,96.49328541598516,None,,,NA,NA,96.4933275830117,96.50460166600533,97.4886365000275,97.49327408301178,93.76028833299642,,,,33775,001,2025-11-11_18h13.58.276,regret_experiment,2024.2.4,None,1,0.5,0.7,0.2,2025-11-11 18h14.11.129705 -0800,
12,0,12,up,0.6020648749545217,None,None,,,12,0,12,0,97.49327408301178,,,,,,,,,97.48916125000687,97.49327408301178,7.2919647209346294e-06,98.48862170800567,13,1,0.5,0.7,0.2,98.4890641659731,98.49511104100384,98.49511104100384,98.49511104100384,98.49511104100384,99.10596312501002,up,0.6020648749545217,None,up,0.6020648749545217,0.7,1,99.11829433299135,99.12721858301666,99.12721858301666,99.12721858301666,99.12721858301666,101.10926691599889,101.10986991599202,,,,,,101.10990504099755,None,,,NA,NA,101.10996949998662,101.12108441599412,102.1047442079871,102.10934120800812,98.49511104100384,,,,33775,001,2025-11-11_18h13.58.276,regret_experiment,2024.2.4,None,1,0.5,0.7,0.2,2025-11-11 18h14.11.129705 -0800,
13,0,13,up,0.5720432499656454,None,1,1.505875915987417,None,13,0,13,0,102.10934120800812,,,,,,,,,102.1052634579828,102.10934120800812,-0.0005484159919433296,103.10526158299763,14,1,0.5,0.7,0.2,103.10553183301818,103.10995595797431,103.10995595797431,103.10995595797431,103.10995595797431,103.69024458300555,up,0.5720432499656454,None,up,0.5720432499656454,0.7,0,103.70363045798149,103.71069062501192,103.71069062501192,103.71069062501192,103.71069062501192,105.69231587502873,105.70076254097512,105.71182550000958,105.71182550000958,105.71182550000958,105.71182550000958,105.71182550000958,107.22216854098951,1,1.505875915987417,None,1,1.505875915987417,107.22223437501816,107.22969420801383,108.22402141598286,108.22972300002584,103.10995595797431,,,,33775,001,2025-11-11_18h13.58.276,regret_experiment,2024.2.4,None,1,0.5,0.7,0.2,2025-11-11 18h14.11.129705 -0800,
14,0,14,right,0.6947137080132961,None,1,1.2418278750265017,None,14,0,14,0,108.22972300002584,,,,,,,,,108.22450004098937,108.22972300002584,0.0023066660505719483,109.22131125000305,15,1,0.5,0.7,0.2,109.22229929099558,109.22796508297324,109.22796508297324,109.22796508297324,109.22796508297324,109.92788912501419,right,0.6947137080132961,None,right,0.6947137080132961,0.2,0,109.94212254101876,109.95434787502745,109.95434787502745,109.95434787502745,109.95434787502745,111.9374666250078,111.9442087499774,111.95096208300674,111.95096208300674,111.95096208300674,111.95096208300674,111.95096208300674,113.19875074998708,1,1.2418278750265017,None,1,1.2418278750265017,113.19881937501486,113.20742854097625,114.19264924997697,114.20387004100485,109.22796508297324,,,,33775,001,2025-11-11_18h13.58.276,regret_experiment,2024.2.4,None,1,0.5,0.7,0.2,2025-11-11 18h14.11.129705 -0800,
15,0,15,left,0.43225095799425617,None,1,0.722020709014032,None,15,0,15,0,114.20387004100485,,,,,,,,,114.19367183302529,114.20387004100485,0.005115333013236523,115.18783900002018,16,1,0.5,0.7,0.2,115.18814195797313,115.19328166602645,115.19328166602645,115.19328166602645,115.19328166602645,115.62708879099227,left,0.43225095799425617,None,left,0.43225095799425617,0.5,0,115.64001329097664,115.64747874997556,115.64747874997556,115.64747874997556,115.64747874997556,117.637111500022,117.64490820799256,117.65060708299279,117.65060708299279,117.65060708299279,117.65060708299279,117.65060708299279,118.38305012497585,1,0.722020709014032,None,1,0.722020709014032,118.38311574998079,118.38776704098564,119.37094074999914,119.37589874997502,115.19328166602645,,,,33775,001,2025-11-11_18h13.58.276,regret_experiment,2024.2.4,None,1,0.5,0.7,0.2,2025-11-11 18h14.11.129705 -0800,
16,0,16,up,0.5518683330155909,None,1,0.8456654170295224,None,16,0,16,0,119.37589874997502,,,,,,,,,119.37173591600731,119.37589874997502,0.0038924579857848585,120.37159162497846,17,1,0.5,0.7,0.2,120.37191529100528,120.37686204101192,120.37686204101192,120.37686204101192,120.37686204101192,120.93888024997432,up,0.5518683330155909,None,up,0.5518683330155909,0.7,0,120.9514541659737,120.96053204097552,120.96053204097552,120.96053204097552,120.96053204097552,122.94197304098634,122.94866216601804,122.9546152909752,122.9546152909752,122.9546152909752,122.9546152909752,122.9546152909752,123.80470991600305,1,0.8456654170295224,None,1,0.8456654170295224,123.8047832500306,123.80885083298199,124.80399304098682,124.80914345802739,120.37686204101192,,,,33775,001,2025-11-11_18h13.58.276,regret_experiment,2024.2.4,None,1,0.5,0.7,0.2,2025-11-11 18h14.11.129705 -0800,
17,0,17,up,0.600330000044778,None,None,,,17,0,17,0,124.80914345802739,,,,,,,,,124.80434570799116,124.80914345802739,-0.0003962090122513473,125.80394295800943,18,1,0.5,0.7,0.2,125.80426441598684,125.80894691601861,125.80894691601861,125.80894691601861,125.80894691601861,126.42199987499043,up,0.600330000044778,None,up,0.600330000044778,0.7,1,126.434408082976,126.44105637498433,126.44105637498433,126.44105637498433,126.44105637498433,128.42484662501374,128.42526699998416,,,,,,128.42531199997757,None,,,NA,NA,128.4253851660178,128.4366303330171,129.4273065829766,129.43311995797558,125.80894691601861,,,,33775,001,2025-11-11_18h13.58.276,regret_experiment,2024.2.4,None,1,0.5,0.7,0.2,2025-11-11 18h14.11.129705 -0800,
18,0,18,right,0.5673181249876507,None,1,3.248912416980602,None,18,0,18,0,129.43311995797558,,,,,,,,,129.42786237498512,129.43311995797558,0.0025293329963460565,130.42090633301996,19,1,0.5,0.7,0.2,130.4211298750015,130.42582233302528,130.42582233302528,130.42582233302528,130.42582233302528,131.0052207080298,right,0.5673181249876507,None,right,0.5673181249876507,0.2,0,131.01873954100301,131.02657049999107,131.02657049999107,131.02657049999107,131.02657049999107,133.0077910409891,133.016218499979,133.02345595799852,133.02345595799852,133.02345595799852,133.02345595799852,133.02345595799852,136.2770857079886,1,3.248912416980602,None,1,3.248912416980602,136.27715133299353,136.28600858297432,137.27081004099455,137.27588654099964,130.42582233302528,,,,33775,001,2025-11-11_18h13.58.276,regret_experiment,2024.2.4,None,1,0.5,0.7,0.2,2025-11-11 18h14.11.129705 -0800,
19,0,19,up,0.6234857910312712,None,None,,,19,0,19,0,137.27588654099964,,,,,,,,,137.27153004100546,137.27588654099964,0.008404457999859005,138.26994204102084,20,1,0.5,0.7,0.2,138.27704741602065,138.28214566601673,138.28214566601673,138.28214566601673,138.28214566601673,138.9103962079971,up,0.6234857910312712,None,up,0.6234857910312712,0.7,1,138.92297437501838,138.9299816659768,138.9299816659768,138.9299816659768,138.9299816659768,140.9195299160201,140.9198665000149,,,,,,140.91990408301353,None,,,NA,NA,140.91994679102208,140.92412495799363,141.9075888749794,141.9193613330135,138.28214566601673,,,,33775,001,2025-11-11_18h13.58.276,regret_experiment,2024.2.4,None,1,0.5,0.7,0.2,2025-11-11 18h14.11.129705 -0800,
20,0,20,up,0.6304741250351071,None,None,,,20,0,20,0,141.9193613330135,,,,,,,,,141.90799741598312,141.9193613330135,-0.0005284170038066804,142.90332166600274,21,1,0.5,0.7,0.2,142.90356308297487,142.90810141601833,142.90810141601833,142.90810141601833,142.90810141601833,143.54249245801475,up,0.6304741250351071,None,up,0.6304741250351071,0.7,1,143.55558849999215,143.56835662497906,143.56835662497906,143.56835662497906,143.56835662497906,145.5526964580058,145.55301491601858,,,,,,145.55305066599976,None,,,NA,NA,145.5530969160027,145.55771399999503,146.55314420798095,146.55831104097888,142.90810141601833,,,,33775,001,2025-11-11_18h13.58.276,regret_experiment,2024.2.4,None,1,0.5,0.7,0.2,2025-11-11 18h14.11.129705 -0800,
21,0,21,up,0.48987091600429267,None,1,3.6778610830078833,None,21,0,21,0,146.55831104097888,,,,,,,,,146.5536103330087,146.55831104097888,0.0005464170244522393,147.5536342500127,22,1,0.5,0.7,0.2,147.55387491598958,147.55867691599997,147.55867691599997,147.55867691599997,147.55867691599997,148.05368349998025,up,0.48987091600429267,None,up,0.48987091600429267,0.7,0,148.06842958298512,148.07503825001186,148.07503825001186,148.07503825001186,148.07503825001186,150.057741000026,150.06469362502685,150.07684574997984,150.07684574997984,150.07684574997984,150.07684574997984,150.07684574997984,153.75936291599646,1,3.6778610830078833,None,1,3.6778610830078833,153.7594265830121,153.76900074997684,154.75259270798415,154.75721983297262,147.55867691599997,,,,33775,001,2025-11-11_18h13.58.276,regret_experiment,2024.2.4,None,1,0.5,0.7,0.2,2025-11-11 18h14.11.129705 -0800,
22,0,22,left,0.6272729999618605,None,1,3.634684292017482,None,22,0,22,0,154.75721983297262,,,,,,,,,154.75311904097907,154.75721983297262,0.009478499996475875,155.7401860409882,23,1,0.5,0.7,0.2,155.74050220800564,155.75685808301205,155.75685808301205,155.75685808301205,155.75685808301205,156.38702416600427,left,0.6272729999618605,None,left,0.6272729999618605,0.5,0,156.3991712909774,156.4066800409928,156.4066800409928,156.4066800409928,156.4066800409928,158.391092750011,158.3981773330015,158.40566487499746,158.40566487499746,158.40566487499746,158.40566487499746,158.40566487499746,162.0419499159907,1,3.634684292017482,None,1,3.634684292017482,162.04201608302537,162.05199795798399,163.03617716598092,163.0410091250087,155.75214054097887,,,,33775,001,2025-11-11_18h13.58.276,regret_experiment,2024.2.4,None,1,0.5,0.7,0.2,2025-11-11 18h14.11.129705 -0800,
23,0,23,right,2.029524040990509,None,2,1.083297125005629,None,23,0,23,0,163.0410091250087,,,,,,,,,163.0364804160199,163.0410091250087,-0.000941749953199178,164.03588237502845,24,1,0.5,0.7,0.2,164.0363030830049,164.0412013750174,164.0412013750174,164.0412013750174,164.0412013750174,166.0750811250182,right,2.029524040990509,None,right,2.029524040990509,0.2,0,166.08735879097367,166.09425583301345,166.09425583301345,166.09425583301345,166.09425583301345,168.08505679102382,168.09161133301677,168.09889850002946,168.09889850002946,168.09889850002946,168.09889850002946,168.09889850002946,169.18640608299756,2,1.083297125005629,None,2,1.083297125005629,169.18648987502092,169.19266741600586,170.18529287498677,170.1912996660103,164.0412013750174,,,,33775,001,2025-11-11_18h13.58.276,regret_experiment,2024.2.4,None,1,0.5,0.7,0.2,2025-11-11 18h14.11.129705 -0800,
24,0,24,left,0.73989766696468,None,1,2.3129882909706794,None,24,0,24,0,170.1912996660103,,,,,,,,,170.18590829102322,170.1912996660103,-0.0005321250064298511,171.18537762499182,25,1,0.5,0.7,0.2,171.19241829100065,171.19742104102625,171.19742104102625,171.19742104102625,171.19742104102625,171.94125933299074,left,0.73989766696468,None,left,0.73989766696468,0.5,0,171.9545187500189,171.96129154099617,171.96129154099617,171.96129154099617,171.96129154099617,173.951423874998,173.95919016597327,173.96533620799892,173.96533620799892,173.96533620799892,173.96533620799892,173.96533620799892,176.28780983301112,1,2.3129882909706794,None,1,2.3129882909706794,176.28788137499942,176.29637679102598,177.28581199998735,177.29104529100005,171.19742104102625,,,,33775,001,2025-11-11_18h13.58.276,regret_experiment,2024.2.4,None,1,0.5,0.7,0.2,2025-11-11 18h14.11.129705 -0800,
25,0,25,up,0.5870809170301072,None,None,,,25,0,25,0,177.29104529100005,,,,,,,,,177.28634558297927,177.29104529100005,0.0032728330115787685,178.2867398330127,26,1,0.5,0.7,0.2,178.28717745799804,178.29187241598265,178.29187241598265,178.29187241598265,178.29187241598265,178.8884090000065,up,0.5870809170301072,None,up,0.5870809170301072,0.7,1,178.90152783301892,178.90886324999155,178.90886324999155,178.90886324999155,178.90886324999155,180.88922608300345,180.89010545797646,,,,,,180.89014408300864,None,,,NA,NA,180.8901957499911,180.90122366597643,181.88719600002514,181.89270283299265,178.29187241598265,,,,33775,001,2025-11-11_18h13.58.276,regret_experiment,2024.2.4,None,1,0.5,0.7,0.2,2025-11-11 18h14.11.129705 -0800,
26,0,26,up,2.119735209038481,None,None,,,26,0,26,0,181.89270283299265,,,,,,,,,181.88775595801417,181.89270283299265,0.002582582994364202,182.8844577909913,27,1,0.5,0.7,0.2,182.88516966602765,182.88975308299996,182.88975308299996,182.88975308299996,182.88975308299996,185.01873033301672,up,2.119735209038481,None,up,2.119735209038481,0.7,1,185.03120029100683,185.04439016600372,185.04439016600372,185.04439016600372,185.04439016600372,187.0229831659817,187.0236043750192,,,,,,187.0236387909972,None,,,NA,NA,187.02368479099823,187.0346810829942,188.01793979102513,188.0223692500149,182.88975308299996,,,,33775,001,2025-11-11_18h13.58.276,regret_experiment,2024.2.4,None,1,0.5,0.7,0.2,2025-11-11 18h14.11.129705 -0800,
27,0,27,up,0.9237783750286326,None,None,,,27,0,27,0,188.0223692500149,,,,,,,,,188.01821412501158,188.0223692500149,0.010504958045203239,189.00725737499306,28,1,0.5,0.7,0.2,189.00754208298167,189.01789879100397,189.01789879100397,189.01789879100397,189.01789879100397,189.95246829098323,up,0.9237783750286326,None,up,0.9237783750286326,0.7,1,189.9654851660016,189.97205379098887,189.97205379098887,189.97205379098887,189.97205379098887,191.9560225000023,191.9567132910015,,,,,,191.95674712501932,None,,,NA,NA,191.95679904101416,191.967300874996,192.9547881250037,192.9598802080145,189.01789879100397,,,,33775,001,2025-11-11_18h13.58.276,regret_experiment,2024.2.4,None,1,0.5,0.7,0.2,2025-11-11 18h14.11.129705 -0800,
28,0,28,up,0.8233257090323605,None,2,2.1041621660115197,None,28,0,28,0,192.9598802080145,,,,,,,,,192.95537600002717,192.9598802080145,0.0031462080078199506,193.95157008297974,29,1,0.5,0.7,0.2,193.95205133297713,194.16726733301766,194.16726733301766,194.16726733301766,194.16726733301766,195.0058432079968,up,0.8233257090323605,None,up,0.8233257090323605,0.7,0,195.01892291597323,195.02584691601805,195.02584691601805,195.02584691601805,195.02584691601805,197.0062132080202,197.01408229098888,197.02149287500652,197.02149287500652,197.02149287500652,197.02149287500652,197.02149287500652,199.1305481659947,2,2.1041621660115197,None,2,2.1041621660115197,199.13063949998468,199.13968954101438,200.1329428749741,,194.16726733301766,,,,33775,001,2025-11-11_18h13.58.276,regret_experiment,2024.2.4,None,1,0.5,0.7,0.2,2025-11-11 18h14.11.129705 -0800,
29,0,29,right,0.5695156250149012,None,2,1.1722122500068508,None,29,0,29,0,200.13867108302657,,,,,,,,,200.13384399999632,200.13867108302657,0.00325858301948756,201.13406545802718,30,1,0.5,0.7,0.2,201.13454950001324,201.13967329100706,201.13967329100706,201.13967329100706,201.13967329100706,201.72141416597879,right,0.5695156250149012,None,right,0.5695156250149012,0.2,0,201.73676737502683,201.74480920803035,201.74480920803035,201.74480920803035,201.74480920803035,203.72168495802907,203.72957074997248,203.73688649997348,203.73688649997348,203.73688649997348,203.73688649997348,203.73688649997348,204.91806104098214,2,1.1722122500068508,None,2,1.1722122500068508,204.91812550002942,204.92410570802167,205.92420845798915,205.92974591598613,,,,,33775,001,2025-11-11_18h13.58.276,regret_experiment,2024.2.4,None,1,0.5,0.7,0.2,2025-11-11 18h14.11.129705 -0800,
30,0,30,left,1.148294500017073,None,None,,,30,0,30,0,205.92974591598613,,,,,,,,,205.92451587499818,205.92974591598613,0.006423833023291081,206.91731633298332,31,1,0.5,0.7,0.2,206.92393583297962,206.92857462499524,206.92857462499524,206.92857462499524,206.92857462499524,208.08456041599857,left,1.148294500017073,None,left,1.148294500017073,0.5,1,208.09775983297732,208.10482675000094,208.10482675000094,208.10482675000094,208.10482675000094,210.08807129098568,210.08860562497284,,,,,,210.08865833299933,None,,,NA,NA,210.08875100000296,210.10003774997313,211.08368054102175,211.08855416602455,206.92857462499524,,,,33775,001,2025-11-11_18h13.58.276,regret_experiment,2024.2.4,None,1,0.5,0.7,0.2,2025-11-11 18h14.11.129705 -0800,
31,0,31,left,0.8248289170442149,None,None,,,31,0,31,0,211.08855416602455,,,,,,,,,211.0840417079744,211.08855416602455,-0.0001105000264942646,212.08367383299628,32,1,0.5,0.7,0.2,212.0839471659856,212.08892612502677,212.08892612502677,212.08892612502677,212.08892612502677,212.92044187500142,left,0.8248289170442149,None,left,0.8248289170442149,0.5,1,212.93307433300652,212.9414336659829,212.9414336659829,212.9414336659829,212.9414336659829,214.9210188750294,214.92155445797835,,,,,,214.92158829100663,None,,,NA,NA,214.92163379100384,214.93299724999815,215.9237713330076,215.92912366602104,212.08892612502677,,,,33775,001,2025-11-11_18h13.58.276,regret_experiment,2024.2.4,None,1,0.5,0.7,0.2,2025-11-11 18h14.11.129705 -0800,
32,0,32,left,0.49903804098721594,None,None,,,32,0,32,0,215.92912366602104,,,,,,,,,215.92430725001032,215.92912366602104,0.00270545796956867,216.91669154097326,33,1,0.5,0.7,0.2,216.9172202500049,216.9219976660097,216.9219976660097,216.9219976660097,216.9219976660097,217.4230907500023,left,0.49903804098721594,None,left,0.49903804098721594,0.5,1,217.43596254102886,217.44270408299053,217.44270408299053,217.44270408299053,217.44270408299053,219.43285266601015,219.44027233298402,,,,,,219.4403029580135,None,,,NA,NA,219.44035679101944,219.44464466598583,220.44143108301796,220.44701037497725,216.9219976660097,,,,33775,001,2025-11-11_18h13.58.276,regret_experiment,2024.2.4,None,1,0.5,0.7,0.2,2025-11-11 18h14.11.129705 -0800,
33,0,33,right,1.1024506249814294,None,None,,,33,0,33,0,220.44701037497725,,,,,,,,,220.44196695799474,220.44701037497725,0.001648708013817668,221.4330576659995,34,1,0.5,0.7,0.2,221.43370049999794,221.43843229097547,221.43843229097547,221.43843229097547,221.43843229097547,222.5506013330305,right,1.1024506249814294,None,right,1.1024506249814294,0.2,0,222.56490720802685,222.57154675002676,222.57154675002676,222.57154675002676,222.57154675002676,224.55397079099203,224.55446558300173,,,,,,224.55450941598974,None,,,NA,NA,224.55455195799004,224.5659252909827,225.55016495799646,225.5549164999975,221.43843229097547,,,,33775,001,2025-11-11_18h13.58.276,regret_experiment,2024.2.4,None,1,0.5,0.7,0.2,2025-11-11 18h14.11.129705 -0800,
34,0,34,up,0.8338133340002969,None,None,,,34,0,34,0,225.5549164999975,,,,,,,,,225.55064670799766,225.5549164999975,0.0004287920310162008,226.54954270797316,35,1,0.5,0.7,0.2,226.55004483298399,226.55472170800203,226.55472170800203,226.55472170800203,226.55472170800203,227.39979554101592,up,0.8338133340002969,None,up,0.8338133340002969,0.7,1,227.41377679101424,227.421146165987,227.421146165987,227.421146165987,227.421146165987,229.4037048330065,229.404270790983,,,,,,229.40430474997265,None,,,NA,NA,229.40435066598002,229.41617962502642,230.39931133302161,230.4044598750188,226.55472170800203,,,,33775,001,2025-11-11_18h13.58.276,regret_experiment,2024.2.4,None,1,0.5,0.7,0.2,2025-11-11 18h14.11.129705 -0800,
35,0,35,up,0.8865373749868013,None,None,,,35,0,35,0,230.4044598750188,,,,,,,,,230.40006274997722,230.4044598750188,0.0001677079708315432,231.4087632499868,36,1,0.5,0.7,0.2,231.40920008299872,231.4140487909899,231.4140487909899,231.4140487909899,231.4140487909899,232.30574716598494,up,0.8865373749868013,None,up,0.8865373749868013,0.7,1,232.31753191602184,232.32418191601755,232.32418191601755,232.32418191601755,232.32418191601755,234.3155169999809,234.32287933299085,,,,,,234.3229137500166,None,,,NA,NA,234.32295808300842,234.32716624997556,235.31606662500417,235.32048320799368,231.4140487909899,,,,33775,001,2025-11-11_18h13.58.276,regret_experiment,2024.2.4,None,1,0.5,0.7,0.2,2025-11-11 18h14.11.129705 -0800,
36,0,36,left,0.6022523749852553,None,None,,,36,0,36,0,235.32048320799368,,,,,,,,,235.31638104101876,235.32048320799368,0.009227375034242868,236.30349295801716,37,1,0.5,0.7,0.2,236.3042860829737,236.3217604579986,236.3217604579986,236.3217604579986,236.3217604579986,236.93411124998238,left,0.6022523749852553,None,left,0.6022523749852553,0.5,0,236.94792937499005,236.95598520798376,236.95598520798376,236.95598520798376,236.95598520798376,238.9368501250283,238.9375887499773,,,,,,238.93762662500376,None,,,NA,NA,238.9376772500109,238.94881233299384,239.9341836249805,239.9494267500122,236.31609712500358,,,,33775,001,2025-11-11_18h13.58.276,regret_experiment,2024.2.4,None,1,0.5,0.7,0.2,2025-11-11 18h14.11.129705 -0800,
37,0,37,up,0.6995064590009861,None,None,,,37,0,37,0,239.9494267500122,,,,,,,,,239.93462229100987,239.9494267500122,0.011834665958303958,240.932399332989,38,1,0.5,0.7,0.2,240.93307958298828,240.93821966601536,240.93821966601536,240.93821966601536,240.93821966601536,241.64083820802625,up,0.6995064590009861,None,up,0.6995064590009861,0.7,1,241.65591504098848,241.66569758299738,241.66569758299738,241.66569758299738,241.66569758299738,243.64894170803018,243.64945683302358,,,,,,243.64948995801387,None,,,NA,NA,243.64954554097494,243.6535469579976,244.63639791600872,244.64766966598108,240.93821966601536,,,,33775,001,2025-11-11_18h13.58.276,regret_experiment,2024.2.4,None,1,0.5,0.7,0.2,2025-11-11 18h14.11.129705 -0800,
38,0,38,up,1.0103309589903802,None,None,,,38,0,38,0,244.64766966598108,,,,,,,,,244.63688054098748,244.64766966598108,0.0030090410145930946,245.63289675000124,39,1,0.5,0.7,0.2,245.63323074998334,245.64852787501877,245.64852787501877,245.64852787501877,245.64852787501877,246.666847333021,up,1.0103309589903802,None,up,1.0103309589903802,0.7,0,246.683029583015,246.69437362498138,246.69437362498138,246.69437362498138,246.69437362498138,248.66947770799743,248.6700321250246,,,,,,248.670077666,None,,,NA,NA,248.67014524998376,248.68154566601152,249.66472620802233,249.67932745802682,245.63862475001952,,,,33775,001,2025-11-11_18h13.58.276,regret_experiment,2024.2.4,None,1,0.5,0.7,0.2,2025-11-11 18h14.11.129705 -0800,
39,0,39,right,0.4453384169610217,None,None,,,39,0,39,0,249.67932745802682,,,,,,,,,249.67421929101693,249.67932745802682,0.004125041014049202,250.66511845798232,40,1,0.5,0.7,0.2,250.66561074997298,250.67054941598326,250.67054941598326,250.67054941598326,250.67054941598326,251.12349295802414,right,0.4453384169610217,None,right,0.4453384169610217,0.2,1,251.13670129101956,251.14424524997594,251.14424524997594,251.14424524997594,251.14424524997594,253.1318608750007,253.13539991597645,,,,,,253.13550579099683,None,,,NA,NA,253.13561699999264,253.14072691602632,254.13200804102235,254.13690729101654,250.67054941598326,,,,33775,001,2025-11-11_18h13.58.276,regret_experiment,2024.2.4,None,1,0.5,0.7,0.2,2025-11-11 18h14.11.129705 -0800,
40,0,40,right,0.6566365830367431,None,None,,,40,0,40,0,254.13690729101654,,,,,,,,,254.13264312501997,254.13690729101654,0.0013728749472647905,255.1217837500153,41,1,0.5,0.7,0.2,255.1225508750067,255.13127383298706,255.13127383298706,255.13127383298706,255.13127383298706,255.79905274999328,right,0.6566365830367431,None,right,0.6566365830367431,0.2,0,255.81397104100324,255.8207488330081,255.8207488330081,255.8207488330081,255.8207488330081,257.80266779102385,257.8032855829806,,,,,,257.8033186660032,None,,,NA,NA,257.8033626250108,257.8145528329769,258.79837887501344,258.80301920801867,255.13127383298706,,,,33775,001,2025-11-11_18h13.58.276,regret_experiment,2024.2.4,None,1,0.5,0.7,0.2,2025-11-11 18h14.11.129705 -0800,
41,0,41,left,0.4397183330147527,None,None,,,41,0,41,0,258.80301920801867,,,,,,,,,258.79885775002185,258.80301920801867,-0.0002835419727489352,259.7984735830105,42,1,0.5,0.7,0.2,259.7987149580149,259.8032033329946,259.8032033329946,259.8032033329946,259.8032033329946,260.2501514580217,left,0.4397183330147527,None,left,0.4397183330147527,0.5,0,260.2641207079869,260.27229950000765,260.27229950000765,260.27229950000765,260.27229950000765,262.2522808749927,262.252818708017,,,,,,262.25285566598177,None,,,NA,NA,262.25290712498827,262.26479054102674,263.251810916001,263.2635231660097,259.8032033329946,,,,33775,001,2025-11-11_18h13.58.276,regret_experiment,2024.2.4,None,1,0.5,0.7,0.2,2025-11-11 18h14.11.129705 -0800,
42,0,42,up,0.5662397079868242,None,None,,,42,0,42,0,263.2635231660097,,,,,,,,,263.2521790830069,263.2635231660097,-0.000685917038936168,264.24731787497876,43,1,0.5,0.7,0.2,264.2476672080229,264.25244016601937,264.25244016601937,264.25244016601937,264.25244016601937,264.8201638329774,up,0.5662397079868242,None,up,0.5662397079868242,0.7,0,264.8336048750207,264.8424201660091,264.8424201660091,264.8424201660091,264.8424201660091,266.8308500829735,266.8322247079923,,,,,,266.8322595410282,None,,,NA,NA,266.8323031250038,266.8363852080074,267.81929837499047,267.8314043750288,264.25244016601937,,,,33775,001,2025-11-11_18h13.58.276,regret_experiment,2024.2.4,None,1,0.5,0.7,0.2,2025-11-11 18h14.11.129705 -0800,
43,0,43,up,0.8600384999881499,None,None,,,43,0,43,0,267.8314043750288,,,,,,,,,267.81973412499065,267.8314043750288,-0.0008502499549649656,268.81449537497247,44,1,0.5,0.7,0.2,268.8213222079794,268.83064175001346,268.83064175001346,268.83064175001346,268.83064175001346,269.69851995800855,up,0.8600384999881499,None,up,0.8600384999881499,0.7,1,269.7125509160105,269.71989787498023,269.71989787498023,269.71989787498023,269.71989787498023,271.7019837910193,271.7025424580206,,,,,,271.7025828330079,None,,,NA,NA,271.70262845797697,271.7139273749781,272.69776125001954,272.7022469160147,268.8254864580231,,,,33775,001,2025-11-11_18h13.58.276,regret_experiment,2024.2.4,None,1,0.5,0.7,0.2,2025-11-11 18h14.11.129705 -0800,
44,0,44,right,0.4655677499831654,None,None,,,44,0,44,0,272.7022469160147,,,,,,,,,272.6982042909949,272.7022469160147,-0.0003233749885112047,273.685656458023,45,1,0.5,0.7,0.2,273.68595604097936,273.69719320797594,273.69719320797594,273.69719320797594,273.69719320797594,274.1657317079953,right,0.4655677499831654,None,right,0.4655677499831654,0.2,0,274.1785154999816,274.18595604097936,274.18595604097936,274.18595604097936,274.18595604097936,276.1753372080275,276.1758796250215,,,,,,276.17591295798775,None,,,NA,NA,276.17595604102826,276.1802631249884,277.1642665829859,277.16949329100316,273.69719320797594,,,,33775,001,2025-11-11_18h13.58.276,regret_experiment,2024.2.4,None,1,0.5,0.7,0.2,2025-11-11 18h14.11.129705 -0800,
45,0,45,left,0.5674506250070408,None,None,,,45,0,45,0,277.16949329100316,,,,,,,,,277.16469887498533,277.16949329100316,0.004881333035882562,278.1644615000114,46,1,0.5,0.7,0.2,278.16481041599764,278.1699337909813,278.1699337909813,278.1699337909813,278.1699337909813,278.74853525002254,left,0.5674506250070408,None,left,0.5674506250070408,0.5,0,278.76190874999156,278.76842979097273,278.76842979097273,278.76842979097273,278.76842979097273,280.7520015829941,280.75265045801643,,,,,,280.75267925002845,None,,,NA,NA,280.7527207499952,280.7639633329818,281.74708841601387,281.7517862910172,278.1699337909813,,,,33775,001,2025-11-11_18h13.58.276,regret_experiment,2024.2.4,None,1,0.5,0.7,0.2,2025-11-11 18h14.11.129705 -0800,
46,0,46,left,0.48266741703264415,None,None,,,46,0,46,0,281.7517862910172,,,,,,,,,281.7476536660106,281.7517862910172,-0.0008739170152693987,282.7349672910059,47,1,0.5,0.7,0.2,282.7353001660085,282.7509006250184,282.7509006250184,282.7509006250184,282.7509006250184,283.23663429101,left,0.48266741703264415,None,left,0.48266741703264415,0.5,0,283.24905062501784,283.25547429098515,283.25547429098515,283.25547429098515,283.25547429098515,285.246685791004,285.2479356660042,,,,,,285.2479694579961,None,,,NA,NA,285.2480127909803,285.252142250014,286.2473951249849,286.2525292499922,282.7459631660022,,,,33775,001,2025-11-11_18h13.58.276,regret_experiment,2024.2.4,None,1,0.5,0.7,0.2,2025-11-11 18h14.11.129705 -0800,
47,0,47,up,0.5384826249792241,None,None,,,47,0,47,0,286.2525292499922,,,,,,,,,286.2478862910066,286.2525292499922,-9.420799324288964e-05,287.23601987498114,48,1,0.5,0.7,0.2,287.2364034160273,287.24703754100483,287.24703754100483,287.24703754100483,287.24703754100483,287.79742608300876,up,0.5384826249792241,None,up,0.5384826249792241,0.7,1,287.81025220802985,287.8167956250254,287.8167956250254,287.8167956250254,287.8167956250254,289.80838662502356,289.80897845799336,,,,,,289.80901329102926,None,,,NA,NA,289.8090584159945,289.8133500830154,290.79674695798894,290.8012702080305,287.24703754100483,,,,33775,001,2025-11-11_18h13.58.276,regret_experiment,2024.2.4,None,1,0.5,0.7,0.2,2025-11-11 18h14.11.129705 -0800,
48,0,48,up,1.5066214579856023,None,None,,,48,0,48,0,290.8012702080305,,,,,,,,,290.79707541601965,290.8012702080305,0.0039873330388218164,291.78458370798035,49,1,0.5,0.7,0.2,291.78503933298634,291.80796104099136,291.80796104099136,291.80796104099136,291.80796104099136,293.3197764159995,up,1.5066214579856023,None,up,1.5066214579856023,0.7,1,293.33139512501657,293.3380519580096,293.3380519580096,293.3380519580096,293.3380519580096,295.32961104100104,295.3301942910184,,,,,,295.33023133297684,None,,,NA,NA,295.33028624998406,295.3342782909749,296.31762020802125,296.32944341597613,291.796385499998,,,,33775,001,2025-11-11_18h13.58.276,regret_experiment,2024.2.4,None,1,0.5,0.7,0.2,2025-11-11 18h14.11.129705 -0800,
49,0,49,up,0.8744735000072978,None,None,,,49,0,49,0,296.32944341597613,,,,,,,,,296.3180370000191,296.32944341597613,-0.0007737500127404928,297.31322320800973,50,1,0.5,0.7,0.2,297.3137039159774,297.3182018750231,297.3182018750231,297.3182018750231,297.3182018750231,298.19733641599305,up,0.8744735000072978,None,up,0.8744735000072978,0.7,1,298.20869529101765,298.2154056659783,298.2154056659783,298.2154056659783,298.2154056659783,300.20099308300996,300.2015912079951,,,,,,300.2016243750113,None,,,NA,NA,300.201667166024,300.2126693329774,301.19625729101244,301.20128666597884,297.3182018750231,,,,33775,001,2025-11-11_18h13.58.276,regret_experiment,2024.2.4,None,1,0.5,0.7,0.2,2025-11-11 18h14.11.129705 -0800,
50,0,50,right,0.6236783749773167,None,None,,,50,0,50,0,301.20128666597884,,,,,,,,,301.1966948750196,301.20128666597884,-0.000292833021376282,302.1841822079732,51,1,0.5,0.7,0.2,302.1845295000239,302.2009731659782,302.2009731659782,302.2009731659782,302.2009731659782,302.8309731250047,right,0.6236783749773167,None,right,0.6236783749773167,0.2,1,302.843163750018,302.85066129098414,302.85066129098414,302.85066129098414,302.85066129098414,304.8339803330018,304.8347190829809,,,,,,304.8347729999805,None,,,NA,NA,304.8348796250066,304.8458646250074,305.8301429999992,305.8348670830019,302.19595616601873,,,,33775,001,2025-11-11_18h13.58.276,regret_experiment,2024.2.4,None,1,0.5,0.7,0.2,2025-11-11 18h14.11.129705 -0800,
51,0,51,right,0.6047828330192715,None,None,,,51,0,51,0,305.8348670830019,,,,,,,,,305.83077841601335,305.8348670830019,0.00010620895773172379,306.83056899998337,52,1,0.5,0.7,0.2,306.8308033749927,306.8354150829837,306.8354150829837,306.8354150829837,306.8354150829837,307.4477567910217,right,0.6047828330192715,None,right,0.6047828330192715,0.2,1,307.45947666600114,307.467104832991,307.467104832991,307.467104832991,307.467104832991,309.45068766601617,309.45136991597246,,,,,,309.45139791601105,None,,,NA,NA,309.45144020800944,309.4622597079724,310.44574779097456,310.45033012499334,306.8354150829837,,,,33775,001,2025-11-11_18h13.58.276,regret_experiment,2024.2.4,None,1,0.5,0.7,0.2,2025-11-11 18h14.11.129705 -0800,
52,0,52,left,0.6464428339968435,None,None,,,52,0,52,0,310.45033012499334,,,,,,,,,310.44624974997714,310.45033012499334,0.010034874954726547,311.4341367909801,53,1,0.5,0.7,0.2,311.4346174580278,311.451581124973,311.451581124973,311.451581124973,311.451581124973,312.10341270797653,left,0.6464428339968435,None,left,0.6464428339968435,0.5,1,312.1163655000273,312.12808579101693,312.12808579101693,312.12808579101693,312.12808579101693,314.11224804102676,314.11269083298976,,,,,,314.11273466597777,None,,,NA,NA,314.11282679100987,314.11706016602693,315.10116866597673,315.11215516598895,311.4460619579768,,,,33775,001,2025-11-11_18h13.58.276,regret_experiment,2024.2.4,None,1,0.5,0.7,0.2,2025-11-11 18h14.11.129705 -0800,
53,0,53,left,0.9099813749780878,None,None,,,53,0,53,0,315.11215516598895,,,,,,,,,315.103457833,315.11215516598895,-0.0005951250204816461,316.09993162500905,54,1,0.5,0.7,0.2,316.100481499976,316.10645312501583,316.10645312501583,316.10645312501583,316.10645312501583,317.01847762498073,left,0.9099813749780878,None,left,0.9099813749780878,0.5,0,317.0324378749938,317.03900241601514,317.03900241601514,317.03900241601514,317.03900241601514,319.028555375,319.0289027080289,,,,,,319.0289397080196,None,,,NA,NA,319.02898845798336,319.03337137500057,320.01697079098085,320.0292318750289,316.10645312501583,,,,33775,001,2025-11-11_18h13.58.276,regret_experiment,2024.2.4,None,1,0.5,0.7,0.2,2025-11-11 18h14.11.129705 -0800,
54,0,54,up,0.8066032499773428,None,None,,,54,0,54,0,320.0292318750289,,,,,,,,,320.01737245800905,320.0292318750289,0.00037116598105058074,321.0121458750218,55,1,0.5,0.7,0.2,321.0123712500208,321.0169287499739,321.0169287499739,321.0169287499739,321.0169287499739,321.82982754101977,up,0.8066032499773428,None,up,0.8066032499773428,0.7,1,321.8411170410109,321.84773162502097,321.84773162502097,321.84773162502097,321.84773162502097,323.8330263749813,323.833676750015,,,,,,323.83371129102306,None,,,NA,NA,323.833754457999,323.8454842080246,324.8286716250004,324.83325466600945,321.0169287499739,,,,33775,001,2025-11-11_18h13.58.276,regret_experiment,2024.2.4,None,1,0.5,0.7,0.2,2025-11-11 18h14.11.129705 -0800,
55,0,55,up,1.0866567500052042,None,None,,,55,0,55,0,324.83325466600945,,,,,,,,,324.8292126660235,324.83325466600945,-0.00044049997813999653,325.81626683298964,56,1,0.5,0.7,0.2,325.8165555410087,325.8333432499785,325.8333432499785,325.8333432499785,325.8333432499785,326.9298507079948,up,1.0866567500052042,None,up,1.0866567500052042,0.7,1,326.94121270801406,326.9478724159999,326.9478724159999,326.9478724159999,326.9478724159999,328.9327197080129,328.93305387499277,,,,,,328.93309616600163,None,,,NA,NA,328.9331727499957,328.9447930000024,329.92770866601495,329.932576332998,325.82823566597654,,,,33775,001,2025-11-11_18h13.58.276,regret_experiment,2024.2.4,None,1,0.5,0.7,0.2,2025-11-11 18h14.11.129705 -0800,
56,0,56,up,0.7813159590004943,None,None,,,56,0,56,0,329.932576332998,,,,,,,,,329.92841749999207,329.932576332998,-0.0005231670220382512,330.91604604100576,57,1,0.5,0.7,0.2,330.9163567079813,330.9327795410063,330.9327795410063,330.9327795410063,330.9327795410063,331.7201600410044,up,0.7813159590004943,None,up,0.7813159590004943,0.7,0,331.73716962500475,331.7464681250276,331.7464681250276,331.7464681250276,331.7464681250276,333.7279983750195,333.7285296249902,,,,,,333.72856870800024,None,,,NA,NA,333.72862845798954,333.73314487497555,334.7285653750296,334.7340265000239,330.92794825002784,,,,33775,001,2025-11-11_18h13.58.276,regret_experiment,2024.2.4,None,1,0.5,0.7,0.2,2025-11-11 18h14.11.129705 -0800,
57,0,57,right,0.5596621670410968,None,None,,,57,0,57,0,334.7340265000239,,,,,,,,,334.72897862497484,334.7340265000239,0.00039912498323246837,335.7177840829827,58,1,0.5,0.7,0.2,335.7182138329954,335.72789479099447,335.72789479099447,335.72789479099447,335.72789479099447,336.29550387500785,right,0.5596621670410968,None,right,0.5596621670410968,0.2,0,336.3107050000108,336.3172900410136,336.3172900410136,336.3172900410136,336.3172900410136,338.2990605410305,338.29957633302547,,,,,,338.29961329099024,None,,,NA,NA,338.2996627080138,338.3110405000043,339.2940268330276,339.2989686660003,335.72789479099447,,,,33775,001,2025-11-11_18h13.58.276,regret_experiment,2024.2.4,None,1,0.5,0.7,0.2,2025-11-11 18h14.11.129705 -0800,
58,0,58,right,1.4966320419916883,None,None,,,58,0,58,0,339.2989686660003,,,,,,,,,339.2945904160151,339.2989686660003,-0.0006277919746935368,340.28388062497834,59,1,0.5,0.7,0.2,340.2842706249794,340.29427483299514,340.29427483299514,340.29427483299514,340.29427483299514,341.79599466599757,right,1.4966320419916883,None,right,1.4966320419916883,0.2,0,341.8095654579811,341.8162592499866,341.8162592499866,341.8162592499866,341.8162592499866,343.7987247079727,343.79924999998184,,,,,,343.7992827909766,None,,,NA,NA,343.79932791600004,343.8108030409785,344.79494962497847,344.7998346249806,340.29427483299514,,,,33775,001,2025-11-11_18h13.58.276,regret_experiment,2024.2.4,None,1,0.5,0.7,0.2,2025-11-11 18h14.11.129705 -0800,
59,0,59,up,0.7905373749672435,None,None,,,59,0,59,0,344.7998346249806,,,,,,,,,344.79573054099455,344.7998346249806,0.0005820840015076101,345.7948017499875,60,1,0.5,0.7,0.2,345.7957552910084,345.8004843330127,345.8004843330127,345.8004843330127,345.8004843330127,346.59610058297403,up,0.7905373749672435,None,up,0.7905373749672435,0.7,0,346.6102652910049,346.61726770800306,346.61726770800306,346.61726770800306,346.61726770800306,348.5986034160014,348.5989014999941,,,,,,348.59894204098964,None,,,NA,NA,348.59901137498673,348.61060858302517,349.6037062079995,349.6461700000218,345.8004843330127,,,,33775,001,2025-11-11_18h13.58.276,regret_experiment,2024.2.4,None,1,0.5,0.7,0.2,2025-11-11 18h14.11.129705 -0800,
,,,,,,,,,,,,,,,,,,,,,,,,,,,,,,,,,,,,,,,,,,,,,,,,,,,,,,,,,,,,,,,,,,,N/A,349.636915665993,349.6461700000218,,,,,,,,,,,,
