thisN,thisTrialN,thisRepN,key_resp_1.keys,key_resp_1.rt,key_resp_1.duration,regret_key.keys,regret_key.rt,regret_key.duration,trials.thisRepN,trials.thisTrialN,trials.thisN,trials.thisIndex,thisRow.t,notes,begin_exp.started,begin.started,advance_key.started,begin_exp.stopped,advance_key.keys,advance_key.rt,advance_key.duration,Fixation.started,fixcross.started,etRecord.started,Fixation.stopped,trial_num,participant_cond,prob_left,prob_up,prob_right,Choice.started,tree1_img.started,tree2_img.started,tree3_img.started,key_resp_1.started,Choice.stopped,trials.key_resp_1.keys,trials.key_resp_1.rt,trials.key_resp_1.duration,choice_key,choice_rt,choice_prob,points,Feedback.started,appleImage.started,tree1.started,tree2.started,tree3.started,Feedback.stopped,regret_rating,regret_rt,RegretRating.started,RegretRating.stopped,trials.regret_key.keys,ITI.started,blank_screen.started,blank_screen.stopped,ITI.stopped,fixcross.stopped,regret_scale.started,regret_key.started,rtree1.started,rtree2.started,rtree3.started,trials.regret_key.rt,trials.regret_key.duration,avg_regret,EndScreen.started,end_display.started,participant,session,date,expName,psychopyVersion,frameRate,participant_cond,prob_left,prob_up,prob_right,expStart,
,,,,,,,,,,,,,,,0.03771604200301226,0.052445708999584895,0.052445708999584895,5.193412874999922,space,5.134636540999054,None,,,,,,1,0.7,0.5,0.2,,,,,,,,,,,,,,,,,,,,,,,,,,,,,,,,,,,,,,,,33799,001,2025-10-22_14h02.56.650,regret_experiment,2024.2.4,None,1,0.7,0.5,0.2,2025-10-22 14h03.11.404630 -0700,
0,0,0,right,2.700069499995152,None,None,,,0,0,0,0,5.749061875001644,,,,,,,,,5.196992334000242,5.749061875001644,0.0035740000021178275,6.201680042002408,1,1,0.7,0.5,0.2,6.202241541999683,6.220809834005195,6.220809834005195,6.220809834005195,6.220809834005195,8.925936042003741,right,2.700069499995152,None,right,2.700069499995152,0.2,1,8.94838458400045,8.963725125002384,8.963725125002384,8.963725125002384,8.963725125002384,10.935056042006181,NA,NA,10.935729959004675,10.93587579200539,None,10.936012792000838,10.943305375003547,11.940660500004014,11.934986292006215,,,,,,,,,,,,33799,001,2025-10-22_14h02.56.650,regret_experiment,2024.2.4,None,1,0.7,0.5,0.2,2025-10-22 14h03.11.404630 -0700,
1,0,1,up,1.3965862919940264,None,1,3.6598575829993933,None,1,0,1,0,11.940660500004014,,,,,,,,,11.93533337500412,11.940660500004014,-0.0006087079964345321,12.93582054199942,2,1,0.7,0.5,0.2,12.936519584000052,12.941371542001434,12.941371542001434,12.941371542001434,12.941371542001434,14.341794917003426,up,1.3965862919940264,None,up,1.3965862919940264,0.5,0,14.37326091700379,14.383155875002558,14.383155875002558,14.383155875002558,14.383155875002558,16.351195458999428,1,3.6598575829993933,16.367601334000938,20.04336925000098,1,20.043471209006384,20.069258584000636,,21.0511995840061,12.941371542001434,16.381963917003304,16.381963917003304,16.381963917003304,16.381963917003304,16.381963917003304,3.6598575829993933,None,,,,33799,001,2025-10-22_14h02.56.650,regret_experiment,2024.2.4,None,1,0.7,0.5,0.2,2025-10-22 14h03.11.404630 -0700,
2,0,2,up,1.256424999999581,None,None,,,2,0,2,0,21.05697075000353,,,,,,,,,21.051883833999455,21.05697075000353,0.008469749998766929,22.05133316700085,3,1,0.7,0.5,0.2,22.051686292004888,22.056865917002142,22.056865917002142,22.056865917002142,22.056865917002142,23.31924904200423,up,1.256424999999581,None,up,1.256424999999581,0.5,1,23.333234959005495,23.342943667004874,23.342943667004874,23.342943667004874,23.342943667004874,25.32432004200382,NA,NA,25.32479620900267,25.32482775000244,None,25.32488320900302,25.33450145900133,26.32447850000608,26.318292667005153,,,,,,,,,,,,33799,001,2025-10-22_14h02.56.650,regret_experiment,2024.2.4,None,1,0.7,0.5,0.2,2025-10-22 14h03.11.404630 -0700,
3,0,3,right,0.8227294999960577,None,2,1.1624545000013313,None,3,0,3,0,26.32447850000608,,,,,,,,,26.318727792000573,26.32447850000608,-0.0003384580049896613,27.318216209001548,4,1,0.7,0.5,0.2,27.318532208999386,27.323175375000574,27.323175375000574,27.323175375000574,27.323175375000574,28.152209584004595,right,0.8227294999960577,None,right,0.8227294999960577,0.2,0,28.168673584004864,28.178513167003985,28.178513167003985,28.178513167003985,28.178513167003985,30.15757804200257,2,1.1624545000013313,30.16540483400604,31.342429584001366,2,31.342552917005378,31.355260667005496,32.35146600000007,32.3404383340021,27.323175375000574,30.174646584004222,30.174646584004222,30.174646584004222,30.174646584004222,30.174646584004222,1.1624545000013313,None,,,,33799,001,2025-10-22_14h02.56.650,regret_experiment,2024.2.4,None,1,0.7,0.5,0.2,2025-10-22 14h03.11.404630 -0700,
4,0,4,left,0.8995149580005091,None,None,,,4,0,4,0,32.35146600000007,,,,,,,,,32.341233500003,32.35146600000007,0.00904933399579022,33.3358670420057,5,1,0.7,0.5,0.2,33.336649834003765,33.34318654200615,33.34318654200615,33.34318654200615,33.34318654200615,34.25358799999958,left,0.8995149580005091,None,left,0.8995149580005091,0.7,1,34.2799822090019,34.28987870900164,34.28987870900164,34.28987870900164,34.28987870900164,36.2571306250029,NA,NA,36.25783679199958,36.25792583400471,None,36.258088167000096,36.26823762500135,37.25953162500082,37.25255529200513,33.34318654200615,,,,,,,,,,,33799,001,2025-10-22_14h02.56.650,regret_experiment,2024.2.4,None,1,0.7,0.5,0.2,2025-10-22 14h03.11.404630 -0700,
5,0,5,left,0.9682917500031181,None,None,,,5,0,5,0,37.25953162500082,,,,,,,,,37.25353154200275,37.25953162500082,0.0016006250007194467,38.251144750000094,6,1,0.7,0.5,0.2,38.251644250005484,38.25741179200122,38.25741179200122,38.25741179200122,38.25741179200122,39.23640470900136,left,0.9682917500031181,None,left,0.9682917500031181,0.7,1,39.2621152089996,39.27305970900488,39.27305970900488,39.27305970900488,39.27305970900488,41.24023537500034,NA,NA,41.24097533400345,41.24106362500606,None,41.24116737500299,41.25156933400285,42.24038025000482,42.23468237500492,38.25741179200122,,,,,,,,,,,33799,001,2025-10-22_14h02.56.650,regret_experiment,2024.2.4,None,1,0.7,0.5,0.2,2025-10-22 14h03.11.404630 -0700,
6,0,6,up,0.8488741659966763,None,None,,,6,0,6,0,42.24038025000482,,,,,,,,,42.235345042005065,42.24038025000482,-0.0006616249957005493,43.22402179200435,7,1,0.7,0.5,0.2,43.22448479200102,43.24075450000237,43.24075450000237,43.24075450000237,43.24075450000237,44.09394691700436,up,0.8488741659966763,None,up,0.8488741659966763,0.5,1,44.11963258400647,44.128535959003784,44.128535959003784,44.128535959003784,44.128535959003784,46.10178012500546,NA,NA,46.10254504200566,46.10264704200381,None,46.10280308400252,46.108117458999914,47.10940504199971,47.10225179200643,43.2348381250049,,,,,,,,,,,33799,001,2025-10-22_14h02.56.650,regret_experiment,2024.2.4,None,1,0.7,0.5,0.2,2025-10-22 14h03.11.404630 -0700,
7,0,7,up,1.4854789999953937,None,1,0.9352497919971938,None,7,0,7,0,47.10940504199971,,,,,,,,,47.10296454200579,47.10940504199971,0.00026287499349564314,48.102483209004276,8,1,0.7,0.5,0.2,48.103067792006186,48.10938483400241,48.10938483400241,48.10938483400241,48.10938483400241,49.60420429200167,up,1.4854789999953937,None,up,1.4854789999953937,0.5,0,49.63410954200663,49.643095459003234,49.643095459003234,49.643095459003234,49.643095459003234,51.60753033400397,1,0.9352497919971938,51.623649084001954,52.5772097500012,1,52.577393125000526,52.590842042001896,53.584817500006466,53.574392125003214,48.10938483400241,51.635601709000184,51.635601709000184,51.635601709000184,51.635601709000184,51.635601709000184,0.9352497919971938,None,,,,33799,001,2025-10-22_14h02.56.650,regret_experiment,2024.2.4,None,1,0.7,0.5,0.2,2025-10-22 14h03.11.404630 -0700,
8,0,8,right,0.49347649999981513,None,1,0.7186338749961578,None,8,0,8,0,53.584817500006466,,,,,,,,,53.57521141700272,53.584817500006466,0.0075738329978776164,54.56919354200363,9,1,0.7,0.5,0.2,54.56978225000057,54.57581333400594,54.57581333400594,54.57581333400594,54.57581333400594,55.076612834003754,right,0.49347649999981513,None,right,0.49347649999981513,0.2,0,55.103509917003976,55.111925791999965,55.111925791999965,55.111925791999965,55.111925791999965,57.0849347090043,1,0.7186338749961578,57.09414029199979,57.824023084001965,1,57.82409745900077,57.83473208400392,58.82607862500299,58.81913758400333,54.57581333400594,57.101097625003604,57.101097625003604,57.101097625003604,57.101097625003604,57.101097625003604,0.7186338749961578,None,,,,33799,001,2025-10-22_14h02.56.650,regret_experiment,2024.2.4,None,1,0.7,0.5,0.2,2025-10-22 14h03.11.404630 -0700,
9,0,9,up,0.6164833330039983,None,2,0.8939493329962716,None,9,0,9,0,58.82607862500299,,,,,,,,,58.82012458400277,58.82607862500299,0.0020961670015822165,59.81896654199954,10,1,0.7,0.5,0.2,59.819749875001435,59.82558870900539,59.82558870900539,59.82558870900539,59.82558870900539,60.45339633399999,up,0.6164833330039983,None,up,0.6164833330039983,0.5,0,60.47977850000461,60.485919167003885,60.485919167003885,60.485919167003885,60.485919167003885,62.45746700000018,2,0.8939493329962716,62.47647387500183,63.387228084000526,2,63.387391292002576,63.395966584001144,64.39330908400007,64.38577837500634,59.82558870900539,62.483996584000124,62.483996584000124,62.483996584000124,62.483996584000124,62.483996584000124,0.8939493329962716,None,,,,33799,001,2025-10-22_14h02.56.650,regret_experiment,2024.2.4,None,1,0.7,0.5,0.2,2025-10-22 14h03.11.404630 -0700,
10,0,10,right,1.7775079589991947,None,2,1.1775662080035545,None,10,0,10,0,64.39330908400007,,,,,,,,,64.38653770900419,64.39330908400007,-0.0007523330059484579,65.3856179170034,11,1,0.7,0.5,0.2,65.38618141700135,65.39188866699988,65.39188866699988,65.39188866699988,65.39188866699988,67.17626287500025,right,1.7775079589991947,None,right,1.7775079589991947,0.2,0,67.20087137500377,67.20894108400535,67.20894108400535,67.20894108400535,67.20894108400535,69.18505500000174,2,1.1775662080035545,69.20117095900059,70.3991007920049,2,70.39926487500634,70.40923291700165,,71.40196041700256,65.39188866699988,69.2088934170024,69.2088934170024,69.2088934170024,69.2088934170024,69.2088934170024,1.1775662080035545,None,,,,33799,001,2025-10-22_14h02.56.650,regret_experiment,2024.2.4,None,1,0.7,0.5,0.2,2025-10-22 14h03.11.404630 -0700,
11,0,11,up,0.7370350829951349,None,None,,,11,0,11,0,71.40999391700461,,,,,,,,,71.40295425000659,71.40999391700461,0.003801500002737157,72.40169008399971,12,1,0.7,0.5,0.2,72.40230545899976,72.40910216700286,72.40910216700286,72.40910216700286,72.40910216700286,73.15347495900642,up,0.7370350829951349,None,up,0.7370350829951349,0.5,1,73.18086179200327,73.18922587500128,73.18922587500128,73.18922587500128,73.18922587500128,75.15734283400525,NA,NA,75.15802304200042,75.15811429200403,None,75.15823216699937,75.16834637500142,76.15876454200043,76.15244116700342,,,,,,,,,,,,33799,001,2025-10-22_14h02.56.650,regret_experiment,2024.2.4,None,1,0.7,0.5,0.2,2025-10-22 14h03.11.404630 -0700,
12,0,12,right,0.9557199160044547,None,1,0.5431486670058803,None,12,0,12,0,76.15876454200043,,,,,,,,,76.15322733400535,76.15876454200043,0.0006650419963989407,77.15250212500541,13,1,0.7,0.5,0.2,77.15293825000117,77.15878545900341,77.15878545900341,77.15878545900341,77.15878545900341,78.12039183400339,right,0.9557199160044547,None,right,0.9557199160044547,0.2,0,78.1332426670051,78.14073020900105,78.14073020900105,78.14073020900105,78.14073020900105,80.1228767499997,1,0.5431486670058803,80.13093750000553,80.68583795900486,1,80.68592687500495,80.69018170900381,81.68888879199949,81.68406700000196,77.15878545900341,80.13845412500086,80.13845412500086,80.13845412500086,80.13845412500086,80.13845412500086,0.5431486670058803,None,,,,33799,001,2025-10-22_14h02.56.650,regret_experiment,2024.2.4,None,1,0.7,0.5,0.2,2025-10-22 14h03.11.404630 -0700,
13,0,13,left,0.893042499999865,None,None,,,13,0,13,0,81.68888879199949,,,,,,,,,81.68456929200329,81.68888879199949,0.0030515000034938566,82.67461858400202,14,1,0.7,0.5,0.2,82.67491979199986,82.68422704200202,82.68422704200202,82.68422704200202,82.68422704200202,83.5871564590052,left,0.893042499999865,None,left,0.893042499999865,0.7,1,83.59971875000338,83.60773683400475,83.60773683400475,83.60773683400475,83.60773683400475,85.59009575000528,NA,NA,85.59072112500144,85.59078299999965,None,85.59086391700112,85.60154812499968,86.59234983400529,86.58599041700654,82.68422704200202,,,,,,,,,,,33799,001,2025-10-22_14h02.56.650,regret_experiment,2024.2.4,None,1,0.7,0.5,0.2,2025-10-22 14h03.11.404630 -0700,
14,0,14,left,0.6603448750029202,None,None,,,14,0,14,0,86.59234983400529,,,,,,,,,86.58686100000341,86.59234983400529,0.0016104590031318367,87.58572562500194,15,1,0.7,0.5,0.2,87.58645950000209,87.5924656250063,87.5924656250063,87.5924656250063,87.5924656250063,88.26004966700566,left,0.6603448750029202,None,left,0.6603448750029202,0.7,1,88.28392658400116,88.2938910840021,88.2938910840021,88.2938910840021,88.2938910840021,90.26852287500515,NA,NA,90.26909379200515,90.26916687500488,None,90.26927704200352,90.27455387500231,91.27694591700129,91.26930374999938,87.5924656250063,,,,,,,,,,,33799,001,2025-10-22_14h02.56.650,regret_experiment,2024.2.4,None,1,0.7,0.5,0.2,2025-10-22 14h03.11.404630 -0700,
15,0,15,up,1.3282324169995263,None,None,,,15,0,15,0,91.27694591700129,,,,,,,,,91.27020395900036,91.27694591700129,0.0010285000025760382,92.26836620900576,16,1,0.7,0.5,0.2,92.2688812500055,92.27505137499975,92.27505137499975,92.27505137499975,92.27505137499975,93.6107199590042,up,1.3282324169995263,None,up,1.3282324169995263,0.5,1,93.63712562500587,93.64646220900613,93.64646220900613,93.64646220900613,93.64646220900613,95.61871745900135,NA,NA,95.61940441700426,95.61951350000163,None,95.61965408400283,95.62514775000454,96.62665458400443,96.61967166700197,92.27505137499975,,,,,,,,,,,33799,001,2025-10-22_14h02.56.650,regret_experiment,2024.2.4,None,1,0.7,0.5,0.2,2025-10-22 14h03.11.404630 -0700,
16,0,16,right,0.5443396250047954,None,1,0.5158717080048518,None,16,0,16,0,96.62665458400443,,,,,,,,,96.62053675000061,96.62665458400443,0.00097749999986263,97.61925070900179,17,1,0.7,0.5,0.2,97.6197893339995,97.62567720900552,97.62567720900552,97.62567720900552,97.62567720900552,98.17772758399951,right,0.5443396250047954,None,right,0.5443396250047954,0.2,0,98.20758179200493,98.21594449999975,98.21594449999975,98.21594449999975,98.21594449999975,100.18527616700158,1,0.5158717080048518,100.20484991700505,100.73715370900027,1,100.73734175000573,100.74613012500049,101.74436975000572,101.73635054199985,97.62567720900552,100.2141132090037,100.2141132090037,100.2141132090037,100.2141132090037,100.2141132090037,0.5158717080048518,None,,,,33799,001,2025-10-22_14h02.56.650,regret_experiment,2024.2.4,None,1,0.7,0.5,0.2,2025-10-22 14h03.11.404630 -0700,
17,0,17,left,0.6443898329962394,None,1,0.6007781669977703,None,17,0,17,0,101.74436975000572,,,,,,,,,101.7375513750012,101.74436975000572,0.00030862499988870695,102.73583212499943,18,1,0.7,0.5,0.2,102.7363738750064,102.74222658399958,102.74222658399958,102.74222658399958,102.74222658399958,103.39340012500179,left,0.6443898329962394,None,left,0.6443898329962394,0.7,0,103.42335191700113,103.4312212090008,103.4312212090008,103.4312212090008,103.4312212090008,105.40179866700055,1,0.6007781669977703,105.41818250000506,106.03675150000345,1,106.03690312500112,106.04576383400126,107.04360216700297,107.03592429200216,102.74222658399958,105.42566487500153,105.42566487500153,105.42566487500153,105.42566487500153,105.42566487500153,0.6007781669977703,None,,,,33799,001,2025-10-22_14h02.56.650,regret_experiment,2024.2.4,None,1,0.7,0.5,0.2,2025-10-22 14h03.11.404630 -0700,
18,0,18,up,0.5599915839993628,None,1,2.0624622920004185,None,18,0,18,0,107.04360216700297,,,,,,,,,107.0370589170052,107.04360216700297,0.000247500000114087,108.03606641700026,19,1,0.7,0.5,0.2,108.03691295900353,108.04340566700557,108.04340566700557,108.04340566700557,108.04340566700557,108.61050225000508,up,0.5599915839993628,None,up,0.5599915839993628,0.5,0,108.63885891700193,108.64749441700405,108.64749441700405,108.64749441700405,108.64749441700405,110.61850320899975,1,2.0624622920004185,110.63566983400233,112.70974350000324,1,112.7099149170026,112.72135800000251,113.7183678750007,113.70738745900599,108.04340566700557,110.64328400000522,110.64328400000522,110.64328400000522,110.64328400000522,110.64328400000522,2.0624622920004185,None,,,,33799,001,2025-10-22_14h02.56.650,regret_experiment,2024.2.4,None,1,0.7,0.5,0.2,2025-10-22 14h03.11.404630 -0700,
19,0,19,right,0.6378603749981266,None,2,0.3948934170039138,None,19,0,19,0,113.7183678750007,,,,,,,,,113.70815937500447,113.7183678750007,0.008585208001022693,114.70248025000183,20,1,0.7,0.5,0.2,114.70301725000172,114.70876495900302,114.70876495900302,114.70876495900302,114.70876495900302,115.35372025000106,right,0.6378603749981266,None,right,0.6378603749981266,0.2,0,115.38205366700276,115.39033504200052,115.39033504200052,115.39033504200052,115.39033504200052,117.35781962500187,2,0.3948934170039138,117.37539620900498,117.7873372920003,2,117.78753304200654,117.79620654199971,118.7933654590015,118.78605458400125,114.70876495900302,117.38296745900152,117.38296745900152,117.38296745900152,117.38296745900152,117.38296745900152,0.3948934170039138,None,,,,33799,001,2025-10-22_14h02.56.650,regret_experiment,2024.2.4,None,1,0.7,0.5,0.2,2025-10-22 14h03.11.404630 -0700,
20,0,20,up,0.6264636249979958,None,None,,,20,0,20,0,118.7933654590015,,,,,,,,,118.787005709004,118.7933654590015,-0.0004052910007885657,119.78609970900288,21,1,0.7,0.5,0.2,119.78669841700321,119.7932999590048,119.7932999590048,119.7932999590048,119.7932999590048,120.42680341700179,up,0.6264636249979958,None,up,0.6264636249979958,0.5,1,120.45435900000302,120.46286012500059,120.46286012500059,120.46286012500059,120.46286012500059,122.43538220900518,NA,NA,122.43624841700512,122.43637650000164,None,122.43650866700045,122.44188166700042,123.43484266700398,123.42536533400562,119.7932999590048,,,,,,,,,,,33799,001,2025-10-22_14h02.56.650,regret_experiment,2024.2.4,None,1,0.7,0.5,0.2,2025-10-22 14h03.11.404630 -0700,
21,0,21,left,0.3291281670026365,None,None,,,21,0,21,0,123.43484266700398,,,,,,,,,123.42614320900611,123.43484266700398,0.0034022500040009618,124.41857495900331,22,1,0.7,0.5,0.2,124.41885954200552,124.43385354200291,124.43385354200291,124.43385354200291,124.43385354200291,124.77067641699978,left,0.3291281670026365,None,left,0.3291281670026365,0.7,1,124.79841187500278,124.81130458400003,124.81130458400003,124.81130458400003,124.81130458400003,126.77284137500101,NA,NA,126.77326241700212,126.7733076250006,None,126.773363625005,126.78527687500173,127.77574391700182,127.76954670900159,124.42281795900635,,,,,,,,,,,33799,001,2025-10-22_14h02.56.650,regret_experiment,2024.2.4,None,1,0.7,0.5,0.2,2025-10-22 14h03.11.404630 -0700,
22,0,22,up,0.3006755829992471,None,None,,,22,0,22,0,127.77574391700182,,,,,,,,,127.77024758400512,127.77574391700182,0.0024827499946695752,128.76752658400073,23,1,0.7,0.5,0.2,128.7678738340037,128.77248941700236,128.77248941700236,128.77248941700236,128.77248941700236,129.07642066700646,up,0.3006755829992471,None,up,0.3006755829992471,0.5,1,129.08788941700186,129.09539741700428,129.09539741700428,129.09539741700428,129.09539741700428,131.0849747090033,NA,NA,131.0852986250029,131.08532712500164,None,131.0853702500026,131.08948533399962,132.08508491700195,132.07477387499966,128.77248941700236,,,,,,,,,,,33799,001,2025-10-22_14h02.56.650,regret_experiment,2024.2.4,None,1,0.7,0.5,0.2,2025-10-22 14h03.11.404630 -0700,
23,0,23,up,0.3013199579945649,None,None,,,23,0,23,0,132.08508491700195,,,,,,,,,132.07574916700105,132.08508491700195,-0.0001862499993876554,133.06987841700175,24,1,0.7,0.5,0.2,133.0706921250021,133.07658920900576,133.07658920900576,133.07658920900576,133.07658920900576,133.38733983400016,up,0.3013199579945649,None,up,0.3013199579945649,0.5,1,133.41417962500418,133.4235954169999,133.4235954169999,133.4235954169999,133.4235954169999,135.39085129200248,NA,NA,135.39157741700183,135.39168775000144,None,135.39182158400217,135.40183166700444,136.39302041700284,136.38620183400053,133.07658920900576,,,,,,,,,,,33799,001,2025-10-22_14h02.56.650,regret_experiment,2024.2.4,None,1,0.7,0.5,0.2,2025-10-22 14h03.11.404630 -0700,
24,0,24,right,0.3385796670045238,None,2,1.115409041995008,None,24,0,24,0,136.39302041700284,,,,,,,,,136.3870617499997,136.39302041700284,0.001371416998154018,137.38609704200644,25,1,0.7,0.5,0.2,137.38660104200244,137.39237908400537,137.39237908400537,137.39237908400537,137.39237908400537,137.73728612500418,right,0.3385796670045238,None,right,0.3385796670045238,0.2,0,137.76451320900378,137.77269866700226,137.77269866700226,137.77269866700226,137.77269866700226,139.74118699999963,2,1.115409041995008,139.75733208400197,140.88714958399942,2,140.8873222090042,140.8981902500018,141.89361020900105,141.88614754200535,137.39237908400537,139.7662359590031,139.7662359590031,139.7662359590031,139.7662359590031,139.7662359590031,1.115409041995008,None,,,,33799,001,2025-10-22_14h02.56.650,regret_experiment,2024.2.4,None,1,0.7,0.5,0.2,2025-10-22 14h03.11.404630 -0700,
25,0,25,left,0.5166074589942582,None,None,,,25,0,25,0,141.89361020900105,,,,,,,,,141.88699791700492,141.89361020900105,-0.00020966699958080426,142.88623416700284,26,1,0.7,0.5,0.2,142.8869121250027,142.89278504200047,142.89278504200047,142.89278504200047,142.89278504200047,143.42070891700132,left,0.5166074589942582,None,left,0.5166074589942582,0.7,1,143.4460126250051,143.4539752500059,143.4539752500059,143.4539752500059,143.4539752500059,145.4240365000005,NA,NA,145.42477679200238,145.42489445899992,None,145.4250250000041,145.43529620900517,146.42565966700204,146.41937391700048,142.89278504200047,,,,,,,,,,,33799,001,2025-10-22_14h02.56.650,regret_experiment,2024.2.4,None,1,0.7,0.5,0.2,2025-10-22 14h03.11.404630 -0700,
26,0,26,right,0.3363417080036015,None,1,0.5318055000025197,None,26,0,26,0,146.42565966700204,,,,,,,,,146.420046584004,146.42565966700204,0.0007715000028838404,147.41944237500138,27,1,0.7,0.5,0.2,147.4199162090008,147.4257291670001,147.4257291670001,147.4257291670001,147.4257291670001,147.77062270900205,right,0.3363417080036015,None,right,0.3363417080036015,0.2,0,147.79841495900473,147.80644191700412,147.80644191700412,147.80644191700412,147.80644191700412,149.77448820900463,1,0.5318055000025197,149.79039479200583,150.33750291700562,1,150.33763437500602,150.34629850000056,151.3433142089998,151.3358956670054,147.4257291670001,149.79758020900044,149.79758020900044,149.79758020900044,149.79758020900044,149.79758020900044,0.5318055000025197,None,,,,33799,001,2025-10-22_14h02.56.650,regret_experiment,2024.2.4,None,1,0.7,0.5,0.2,2025-10-22 14h03.11.404630 -0700,
27,0,27,left,0.36415129200031515,None,1,0.4521290000047884,None,27,0,27,0,151.3433142089998,,,,,,,,,151.33671283400327,151.3433142089998,-0.0008324580048792996,152.33599112500087,28,1,0.7,0.5,0.2,152.3365370840038,152.3423447919995,152.3423447919995,152.3423447919995,152.3423447919995,152.7101516670009,left,0.36415129200031515,None,left,0.36415129200031515,0.7,0,152.73741004200565,152.74519262499962,152.74519262499962,152.74519262499962,152.74519262499962,154.7178784170028,1,0.4521290000047884,154.73403012500057,155.2039252090035,1,155.20407133400295,155.2123356250013,156.2100948340012,156.20281116700062,152.3423447919995,154.74117637500603,154.74117637500603,154.74117637500603,154.74117637500603,154.74117637500603,0.4521290000047884,None,,,,33799,001,2025-10-22_14h02.56.650,regret_experiment,2024.2.4,None,1,0.7,0.5,0.2,2025-10-22 14h03.11.404630 -0700,
28,0,28,left,0.45069274999696063,None,1,0.46626979199936613,None,28,0,28,0,156.2100948340012,,,,,,,,,156.20370279200142,156.2100948340012,-0.00027516700356500223,157.20272145900526,29,1,0.7,0.5,0.2,157.20316991700383,157.4389175000033,157.4389175000033,157.4389175000033,157.4389175000033,157.89309020899964,left,0.45069274999696063,None,left,0.45069274999696063,0.7,0,157.91669691700372,157.92481537500134,157.92481537500134,157.92481537500134,157.92481537500134,159.90245625000534,1,0.46626979199936613,159.9197517499997,160.4033067920027,1,160.40346045900515,160.41205716700642,161.40888379200624,161.4025823750053,157.4389175000033,159.92734900000505,159.92734900000505,159.92734900000505,159.92734900000505,159.92734900000505,0.46626979199936613,None,,,,33799,001,2025-10-22_14h02.56.650,regret_experiment,2024.2.4,None,1,0.7,0.5,0.2,2025-10-22 14h03.11.404630 -0700,
29,0,29,left,0.384638832998462,None,None,,,29,0,29,0,161.40888379200624,,,,,,,,,161.40305920900573,161.40888379200624,-0.00033858299866551533,162.40273629200237,30,1,0.7,0.5,0.2,162.4032717920054,162.40908216700336,162.40908216700336,162.40908216700336,162.40908216700336,162.80427937500644,left,0.384638832998462,None,left,0.384638832998462,0.7,1,162.83183845900203,162.8403337500058,162.8403337500058,162.8403337500058,162.8403337500058,164.80671945900394,NA,NA,164.8071027920014,164.80714679200173,None,164.80723233400204,164.81829054200352,165.80930766700476,165.80283800000325,162.40908216700336,,,,,,,,,,,33799,001,2025-10-22_14h02.56.650,regret_experiment,2024.2.4,None,1,0.7,0.5,0.2,2025-10-22 14h03.11.404630 -0700,
30,0,30,up,0.5042501669959165,None,None,,,30,0,30,0,165.80930766700476,,,,,,,,,165.8037135420018,165.80930766700476,0.0021877920007682405,166.8026975840039,31,1,0.7,0.5,0.2,166.80325495900615,166.8091185420053,166.8091185420053,166.8091185420053,166.8091185420053,167.32069475000026,up,0.5042501669959165,None,up,0.5042501669959165,0.5,1,167.34658754200063,167.35487291699974,167.35487291699974,167.35487291699974,167.35487291699974,169.32444083400333,NA,NA,169.3250443750003,169.32512116699945,None,169.32524129200465,169.3355067500015,170.32460183399962,170.31875783400028,166.8091185420053,,,,,,,,,,,33799,001,2025-10-22_14h02.56.650,regret_experiment,2024.2.4,None,1,0.7,0.5,0.2,2025-10-22 14h03.11.404630 -0700,
31,0,31,left,0.4545328750027693,None,None,,,31,0,31,0,170.32460183399962,,,,,,,,,170.31964095900184,170.32460183399962,-0.0005407499993452802,171.30784512500395,32,1,0.7,0.5,0.2,171.30817291700077,171.32327683400217,171.32327683400217,171.32327683400217,171.32327683400217,171.78628041699994,left,0.4545328750027693,None,left,0.4545328750027693,0.7,1,171.7975546670059,171.80493716700585,171.80493716700585,171.80493716700585,171.80493716700585,173.79137812500267,NA,NA,173.7918406250028,173.79187208400253,None,173.79191808400356,173.80202987500525,174.79196108400356,174.78581529200164,171.31855041700328,,,,,,,,,,,33799,001,2025-10-22_14h02.56.650,regret_experiment,2024.2.4,None,1,0.7,0.5,0.2,2025-10-22 14h03.11.404630 -0700,
32,0,32,left,0.33084579199930886,None,None,,,32,0,32,0,174.79196108400356,,,,,,,,,174.78666625000187,174.79196108400356,0.0001466249959776178,175.7848530420015,33,1,0.7,0.5,0.2,175.78561929200077,175.7906444170003,175.7906444170003,175.7906444170003,175.7906444170003,176.1255463750058,left,0.33084579199930886,None,left,0.33084579199930886,0.7,1,176.1374377500033,176.14440179200028,176.14440179200028,176.14440179200028,176.14440179200028,178.13542175000475,NA,NA,178.1361740420034,178.1362611250006,None,178.1363625840022,178.14155925000523,179.1349427919995,179.1258001669994,175.7906444170003,,,,,,,,,,,33799,001,2025-10-22_14h02.56.650,regret_experiment,2024.2.4,None,1,0.7,0.5,0.2,2025-10-22 14h03.11.404630 -0700,
33,0,33,up,0.44409429100051057,None,None,,,33,0,33,0,179.1349427919995,,,,,,,,,179.12670662500022,179.1349427919995,0.003821792000962887,180.1195807500044,34,1,0.7,0.5,0.2,180.12016029200458,180.1259460000001,180.1259460000001,180.1259460000001,180.1259460000001,180.57711362500413,up,0.44409429100051057,None,up,0.44409429100051057,0.5,1,180.60122279200004,180.60926637500233,180.60926637500233,180.60926637500233,180.60926637500233,182.58542816700356,NA,NA,182.58600179200585,182.5860988340064,None,182.5862336670034,182.59172195900464,183.59360137500335,183.58621741700335,180.1259460000001,,,,,,,,,,,33799,001,2025-10-22_14h02.56.650,regret_experiment,2024.2.4,None,1,0.7,0.5,0.2,2025-10-22 14h03.11.404630 -0700,
34,0,34,up,0.4892113329988206,None,None,,,34,0,34,0,183.59360137500335,,,,,,,,,183.58704758400563,183.59360137500335,0.000911916999029927,184.58631108400004,35,1,0.7,0.5,0.2,184.58684037500643,184.59359841700643,184.59359841700643,184.59359841700643,184.59359841700643,185.08782316699944,up,0.4892113329988206,None,up,0.4892113329988206,0.5,1,185.11349091699958,185.12239587500517,185.12239587500517,185.12239587500517,185.12239587500517,187.09091787500074,NA,NA,187.09151887500047,187.09160233400326,None,187.09170620900113,187.10210216700216,188.0922062919999,188.08615691700106,184.59359841700643,,,,,,,,,,,33799,001,2025-10-22_14h02.56.650,regret_experiment,2024.2.4,None,1,0.7,0.5,0.2,2025-10-22 14h03.11.404630 -0700,
35,0,35,left,0.25215050000406336,None,None,,,35,0,35,0,188.0922062919999,,,,,,,,,188.08690816700255,188.0922062919999,0.0006182500001159497,189.0864459170043,36,1,0.7,0.5,0.2,189.0870015840046,189.0932493750006,189.0932493750006,189.0932493750006,189.0932493750006,189.35395262500242,left,0.25215050000406336,None,left,0.25215050000406336,0.7,1,189.37916633400164,189.38731208399986,189.38731208399986,189.38731208399986,189.38731208399986,191.35784787500597,NA,NA,191.3586560840049,191.35875829200086,None,191.35892850000528,191.36864125000284,192.3598204170048,192.35324899999978,189.0932493750006,,,,,,,,,,,33799,001,2025-10-22_14h02.56.650,regret_experiment,2024.2.4,None,1,0.7,0.5,0.2,2025-10-22 14h03.11.404630 -0700,
36,0,36,right,0.33087870799499797,None,None,,,36,0,36,0,192.3598204170048,,,,,,,,,192.35425879200193,192.3598204170048,0.0010445830048411153,193.3529511250017,37,1,0.7,0.5,0.2,193.35349987500376,193.35929033400316,193.35929033400316,193.35929033400316,193.35929033400316,193.69400200000382,right,0.33087870799499797,None,right,0.33087870799499797,0.2,0,193.7217252920018,193.73016591700434,193.73016591700434,193.73016591700434,193.73016591700434,195.70242116699956,NA,NA,195.7031891670049,195.70326120900427,None,195.70338900000206,195.70877804200427,196.71055704200262,196.7030533750003,193.35929033400316,,,,,,,,,,,33799,001,2025-10-22_14h02.56.650,regret_experiment,2024.2.4,None,1,0.7,0.5,0.2,2025-10-22 14h03.11.404630 -0700,
37,0,37,left,1.4760920420012553,None,None,,,37,0,37,0,196.71055704200262,,,,,,,,,196.70404158400197,196.71055704200262,0.0007388749945675954,197.7031582500058,38,1,0.7,0.5,0.2,197.7037994590064,197.7104721670039,197.7104721670039,197.7104721670039,197.7104721670039,199.19347000000562,left,1.4760920420012553,None,left,1.4760920420012553,0.7,1,199.21824658400146,199.22632108400285,199.22632108400285,199.22632108400285,199.22632108400285,201.2024531670031,NA,NA,201.20317650000652,201.20330458399985,None,201.20344175000355,201.20884558400576,202.2020005000013,202.1919689589995,197.7104721670039,,,,,,,,,,,33799,001,2025-10-22_14h02.56.650,regret_experiment,2024.2.4,None,1,0.7,0.5,0.2,2025-10-22 14h03.11.404630 -0700,
38,0,38,up,0.6016833329995279,None,None,,,38,0,38,0,202.2020005000013,,,,,,,,,202.19287058400369,202.2020005000013,0.004496333000133745,203.18592725000053,39,1,0.7,0.5,0.2,203.18652916700375,203.2020262090009,203.2020262090009,203.2020262090009,203.2020262090009,203.81093320900254,up,0.6016833329995279,None,up,0.6016833329995279,0.5,0,203.84157620900078,203.84974754200084,203.84974754200084,203.84974754200084,203.84974754200084,205.8190960840002,NA,NA,205.81976762500562,205.81985841700225,None,205.81999287500366,205.82532366700616,206.8272709590019,206.81983925000532,203.19159112500347,,,,,,,,,,,33799,001,2025-10-22_14h02.56.650,regret_experiment,2024.2.4,None,1,0.7,0.5,0.2,2025-10-22 14h03.11.404630 -0700,
39,0,39,left,0.4389299590038718,None,None,,,39,0,39,0,206.8272709590019,,,,,,,,,206.82074020900473,206.8272709590019,0.000858082996273879,207.819728459006,40,1,0.7,0.5,0.2,207.82034145900252,207.82703866700467,207.82703866700467,207.82703866700467,207.82703866700467,208.27105570900312,left,0.4389299590038718,None,left,0.4389299590038718,0.7,1,208.29806908400496,208.30672429200058,208.30672429200058,208.30672429200058,208.30672429200058,210.27458900000056,NA,NA,210.27523112500057,210.27531825000187,None,210.27542350000294,210.28552208400652,211.277186875006,211.2700860420009,207.82703866700467,,,,,,,,,,,33799,001,2025-10-22_14h02.56.650,regret_experiment,2024.2.4,None,1,0.7,0.5,0.2,2025-10-22 14h03.11.404630 -0700,
40,0,40,right,0.3339899589991546,None,None,,,40,0,40,0,211.277186875006,,,,,,,,,211.27136299999984,211.277186875006,0.001874000001407694,212.2699873340025,41,1,0.7,0.5,0.2,212.2705878340057,212.27674816700164,212.27674816700164,212.27674816700164,212.27674816700164,212.61879770900123,right,0.3339899589991546,None,right,0.3339899589991546,0.2,0,212.6314321250029,212.63826870900084,212.63826870900084,212.63826870900084,212.63826870900084,214.62335070900008,NA,NA,214.62407079200057,214.62417533400003,None,214.6242976670037,214.6351610000056,215.63520766700094,215.62245608400553,212.27674816700164,,,,,,,,,,,33799,001,2025-10-22_14h02.56.650,regret_experiment,2024.2.4,None,1,0.7,0.5,0.2,2025-10-22 14h03.11.404630 -0700,
41,0,41,up,0.45749612499639625,None,None,,,41,0,41,0,215.63520766700094,,,,,,,,,215.62289625000267,215.63520766700094,0.01099904199509183,216.6190449170026,42,1,0.7,0.5,0.2,216.6193958340009,216.62534558400512,216.62534558400512,216.62534558400512,216.62534558400512,217.08766379200097,up,0.45749612499639625,None,up,0.45749612499639625,0.5,0,217.1003306670027,217.10710220900364,217.10710220900364,217.10710220900364,217.10710220900364,219.08993758400175,NA,NA,219.0903930420027,219.09045037500618,None,219.09049983400473,219.10210175000248,220.0898595000035,220.08523504200275,216.62534558400512,,,,,,,,,,,33799,001,2025-10-22_14h02.56.650,regret_experiment,2024.2.4,None,1,0.7,0.5,0.2,2025-10-22 14h03.11.404630 -0700,
42,0,42,up,0.5522231249997276,None,None,,,42,0,42,0,220.0898595000035,,,,,,,,,220.08564808400115,220.0898595000035,-0.0005680829999619164,221.07387658399966,43,1,0.7,0.5,0.2,221.07451295899955,221.08485845900577,221.08485845900577,221.08485845900577,221.08485845900577,221.64416216700192,up,0.5522231249997276,None,up,0.5522231249997276,0.5,1,221.67040141700272,221.67915225000615,221.67915225000615,221.67915225000615,221.67915225000615,223.65248191700084,NA,NA,223.6530966670034,223.65318725000543,None,223.65332404200308,223.65869995899993,224.66012583400152,224.65277350000542,221.08485845900577,,,,,,,,,,,33799,001,2025-10-22_14h02.56.650,regret_experiment,2024.2.4,None,1,0.7,0.5,0.2,2025-10-22 14h03.11.404630 -0700,
43,0,43,left,0.45544599999993807,None,None,,,43,0,43,0,224.66012583400152,,,,,,,,,224.65365062500496,224.66012583400152,0.00042179200681857765,225.653082542005,44,1,0.7,0.5,0.2,225.6536495840046,225.65949383400584,225.65949383400584,225.65949383400584,225.65949383400584,226.12011608400644,left,0.45544599999993807,None,left,0.45544599999993807,0.7,1,226.1447418750031,226.153389334002,226.153389334002,226.153389334002,226.153389334002,228.125200459006,NA,NA,228.12582483400183,228.12591154200345,None,228.12601416700636,228.13534550000622,229.1258902920017,229.11968591700133,225.65949383400584,,,,,,,,,,,33799,001,2025-10-22_14h02.56.650,regret_experiment,2024.2.4,None,1,0.7,0.5,0.2,2025-10-22 14h03.11.404630 -0700,
44,0,44,up,0.3324213750020135,None,None,,,44,0,44,0,229.1258902920017,,,,,,,,,229.12042766700324,229.1258902920017,-4.666995664592832e-06,230.11995429200033,45,1,0.7,0.5,0.2,230.12060116700013,230.12675725000008,230.12675725000008,230.12675725000008,230.12675725000008,230.47110016700026,up,0.3324213750020135,None,up,0.3324213750020135,0.5,1,230.4967725000024,230.50536437499977,230.50536437499977,230.50536437499977,230.50536437499977,232.47529333400598,NA,NA,232.47603920900292,232.47615666700585,None,232.47628858400276,232.48549004200322,233.4771084170061,233.46986712500075,230.12675725000008,,,,,,,,,,,33799,001,2025-10-22_14h02.56.650,regret_experiment,2024.2.4,None,1,0.7,0.5,0.2,2025-10-22 14h03.11.404630 -0700,
45,0,45,right,0.35072333400603384,None,None,,,45,0,45,0,233.4771084170061,,,,,,,,,233.4707238750052,233.4771084170061,0.0009661250005592592,234.4697605840047,46,1,0.7,0.5,0.2,234.4703924589994,234.47630291700625,234.47630291700625,234.47630291700625,234.47630291700625,234.83778345900646,right,0.35072333400603384,None,right,0.35072333400603384,0.2,0,234.86435587500455,234.87278433400206,234.87278433400206,234.87278433400206,234.87278433400206,236.84133945900248,NA,NA,236.84201483400102,236.8421015000058,None,236.84222941700136,236.85228116700455,237.84257283400075,237.83649562500068,234.47630291700625,,,,,,,,,,,33799,001,2025-10-22_14h02.56.650,regret_experiment,2024.2.4,None,1,0.7,0.5,0.2,2025-10-22 14h03.11.404630 -0700,
46,0,46,left,0.6551657500021975,None,None,,,46,0,46,0,237.84257283400075,,,,,,,,,237.83718924999994,237.84257283400075,0.0005024580023018643,238.83655500000168,47,1,0.7,0.5,0.2,238.8374685000017,238.84350754200568,238.84350754200568,238.84350754200568,238.84350754200568,239.5041990000027,left,0.6551657500021975,None,left,0.6551657500021975,0.7,1,239.52822212500178,239.53606008399947,239.53606008399947,239.53606008399947,239.53606008399947,241.5077461250039,NA,NA,241.50836850000633,241.50845391700568,None,241.5085640000034,241.51885008400131,242.50985695900454,242.50336558400159,238.84350754200568,,,,,,,,,,,33799,001,2025-10-22_14h02.56.650,regret_experiment,2024.2.4,None,1,0.7,0.5,0.2,2025-10-22 14h03.11.404630 -0700,
47,0,47,up,0.3101402500033146,None,None,,,47,0,47,0,242.50985695900454,,,,,,,,,242.50421070900484,242.50985695900454,0.0014205420011421666,243.50318587500078,48,1,0.7,0.5,0.2,243.50382483400608,243.51001962500595,243.51001962500595,243.51001962500595,243.51001962500595,243.82752150000306,up,0.3101402500033146,None,up,0.3101402500033146,0.5,1,243.8539732499994,243.8622022500058,243.8622022500058,243.8622022500058,243.8622022500058,245.8358688340013,NA,NA,245.8366798749994,245.83677566700499,None,245.83688862500276,245.8420955420006,246.84390975000133,246.83669962500426,243.51001962500595,,,,,,,,,,,33799,001,2025-10-22_14h02.56.650,regret_experiment,2024.2.4,None,1,0.7,0.5,0.2,2025-10-22 14h03.11.404630 -0700,
48,0,48,left,0.36736725000082515,None,None,,,48,0,48,0,246.84390975000133,,,,,,,,,246.83757666699967,246.84390975000133,0.0007838330056983978,247.83653587500157,49,1,0.7,0.5,0.2,247.83735012500256,247.84320533400023,247.84320533400023,247.84320533400023,247.84320533400023,248.22099754200462,left,0.36736725000082515,None,left,0.36736725000082515,0.7,1,248.2465950840051,248.2547928750064,248.2547928750064,248.2547928750064,248.2547928750064,250.22479120900243,NA,NA,250.22533958400163,250.22539283399965,None,250.22546854200482,250.23543650000647,251.22597512500215,251.21966675000294,247.84320533400023,,,,,,,,,,,33799,001,2025-10-22_14h02.56.650,regret_experiment,2024.2.4,None,1,0.7,0.5,0.2,2025-10-22 14h03.11.404630 -0700,
49,0,49,left,0.3263516660008463,None,None,,,49,0,49,0,251.22597512500215,,,,,,,,,251.2205960420033,251.22597512500215,0.0006484170007752255,252.2198707090065,50,1,0.7,0.5,0.2,252.22053562500514,252.22692700000334,252.22692700000334,252.22692700000334,252.22692700000334,252.56039941700146,left,0.3263516660008463,None,left,0.3263516660008463,0.7,1,252.58618712500174,252.59443366699998,252.59443366699998,252.59443366699998,252.59443366699998,254.56917045900627,NA,NA,254.56975912500639,254.56983412500267,None,254.56994125000347,254.57511683400662,255.576827667006,255.56975704200158,252.22692700000334,,,,,,,,,,,33799,001,2025-10-22_14h02.56.650,regret_experiment,2024.2.4,None,1,0.7,0.5,0.2,2025-10-22 14h03.11.404630 -0700,
50,0,50,up,0.24458112499996787,None,None,,,50,0,50,0,255.576827667006,,,,,,,,,255.57057716700365,255.576827667006,0.0007230830015032552,256.5696458340026,51,1,0.7,0.5,0.2,256.5701151250032,256.57597550000355,256.57597550000355,256.57597550000355,256.57597550000355,256.8259098750059,up,0.24458112499996787,None,up,0.24458112499996787,0.5,1,256.8398734170041,256.84690645900264,256.84690645900264,256.84690645900264,256.84690645900264,258.835729917002,NA,NA,258.8360624590059,258.8360948750051,None,258.8361577500036,258.8404346250027,259.8439047089996,259.8368500840006,256.57597550000355,,,,,,,,,,,33799,001,2025-10-22_14h02.56.650,regret_experiment,2024.2.4,None,1,0.7,0.5,0.2,2025-10-22 14h03.11.404630 -0700,
51,0,51,up,0.2874310840052203,None,None,,,51,0,51,0,259.8439047089996,,,,,,,,,259.83781500000623,259.8439047089996,0.0017354160008835606,260.8363227500013,52,1,0.7,0.5,0.2,260.8368182500053,260.8421020840033,260.8421020840033,260.8421020840033,260.8421020840033,261.1366946250055,up,0.2874310840052203,None,up,0.2874310840052203,0.5,0,261.1500874170015,261.15843941700587,261.15843941700587,261.15843941700587,261.15843941700587,263.14145445900067,NA,NA,263.1418842500061,263.14192137500504,None,263.1419626250063,263.1516723340028,264.141727000002,264.1359140839995,260.8421020840033,,,,,,,,,,,33799,001,2025-10-22_14h02.56.650,regret_experiment,2024.2.4,None,1,0.7,0.5,0.2,2025-10-22 14h03.11.404630 -0700,
52,0,52,up,0.2626838329961174,None,None,,,52,0,52,0,264.141727000002,,,,,,,,,264.13706579200516,264.141727000002,-0.00015516600251430646,265.1351932500038,53,1,0.7,0.5,0.2,265.1358922090003,265.1405545000016,265.1405545000016,265.1405545000016,265.1405545000016,265.4086687500021,up,0.2626838329961174,None,up,0.2626838329961174,0.5,1,265.42065870900115,265.4271630000003,265.4271630000003,265.4271630000003,265.4271630000003,267.41921350000484,NA,NA,267.41988716700143,267.41999270900124,None,267.4201664170032,267.42558483400353,268.4273119589998,268.4198596250062,265.1405545000016,,,,,,,,,,,33799,001,2025-10-22_14h02.56.650,regret_experiment,2024.2.4,None,1,0.7,0.5,0.2,2025-10-22 14h03.11.404630 -0700,
53,0,53,left,0.31922550000308547,None,None,,,53,0,53,0,268.4273119589998,,,,,,,,,268.42088529200555,268.4273119589998,0.0008412499955738895,269.42023341700406,54,1,0.7,0.5,0.2,269.4208800000051,269.42720866700256,269.42720866700256,269.42720866700256,269.42720866700256,269.7543338340038,left,0.31922550000308547,None,left,0.31922550000308547,0.7,1,269.7805895000056,269.78950345900375,269.78950345900375,269.78950345900375,269.78950345900375,271.75771662500483,NA,NA,271.75830891700025,271.758392542004,None,271.7585070839996,271.7690407090049,272.7597071670025,272.75325133400474,269.42720866700256,,,,,,,,,,,33799,001,2025-10-22_14h02.56.650,regret_experiment,2024.2.4,None,1,0.7,0.5,0.2,2025-10-22 14h03.11.404630 -0700,
54,0,54,left,0.29795287500019185,None,None,,,54,0,54,0,272.7597071670025,,,,,,,,,272.7540632500022,272.7597071670025,0.0013192500045988709,273.7532687500061,55,1,0.7,0.5,0.2,273.753916792004,273.7602077920019,273.7602077920019,273.7602077920019,273.7602077920019,274.06077154200466,left,0.29795287500019185,None,left,0.29795287500019185,0.7,0,274.0887939170061,274.097238250004,274.097238250004,274.097238250004,274.097238250004,276.0692001250063,NA,NA,276.0698560000019,276.06993887499993,None,276.07003879200056,276.0754663340049,277.0683647090045,277.059046375005,273.7602077920019,,,,,,,,,,,33799,001,2025-10-22_14h02.56.650,regret_experiment,2024.2.4,None,1,0.7,0.5,0.2,2025-10-22 14h03.11.404630 -0700,
55,0,55,right,0.351517374998366,None,None,,,55,0,55,0,277.0683647090045,,,,,,,,,277.0598659590032,277.0683647090045,0.0034110839987988584,278.05302704200585,56,1,0.7,0.5,0.2,278.05357112500496,278.05976804200327,278.05976804200327,278.05976804200327,278.05976804200327,278.4212057090044,right,0.351517374998366,None,right,0.351517374998366,0.2,1,278.44587537500047,278.4551591670024,278.4551591670024,278.4551591670024,278.4551591670024,280.42472166700463,NA,NA,280.42529737500445,280.42538041700027,None,280.42549708400475,280.4356087500055,281.42614512500586,281.4199265000061,278.05976804200327,,,,,,,,,,,33799,001,2025-10-22_14h02.56.650,regret_experiment,2024.2.4,None,1,0.7,0.5,0.2,2025-10-22 14h03.11.404630 -0700,
56,0,56,right,0.35185824999643955,None,None,,,56,0,56,0,281.42614512500586,,,,,,,,,281.42078970900184,281.42614512500586,0.0007805000059306622,282.4200447090043,57,1,0.7,0.5,0.2,282.420699084003,282.4267890420015,282.4267890420015,282.4267890420015,282.4267890420015,282.7880082920019,right,0.35185824999643955,None,right,0.35185824999643955,0.2,1,282.8148418750061,282.8231802090013,282.8231802090013,282.8231802090013,282.8231802090013,284.79270870900655,NA,NA,284.7932243750038,284.79325891700137,None,284.79330525000114,284.8022960840026,285.7933765420021,285.78666866700223,282.4267890420015,,,,,,,,,,,33799,001,2025-10-22_14h02.56.650,regret_experiment,2024.2.4,None,1,0.7,0.5,0.2,2025-10-22 14h03.11.404630 -0700,
57,0,57,left,0.3931715409999015,None,None,,,57,0,57,0,285.7933765420021,,,,,,,,,285.7875374590003,285.7933765420021,0.00017254200065508485,286.7868187500062,58,1,0.7,0.5,0.2,286.7874487920053,286.7938385840025,286.7938385840025,286.7938385840025,286.7938385840025,287.19395904200064,left,0.3931715409999015,None,left,0.3931715409999015,0.7,1,287.2193488750054,287.22747837500356,287.22747837500356,287.22747837500356,287.22747837500356,289.2025486250059,NA,NA,289.2030756670065,289.20314833400334,None,289.20325912500266,289.2086263340025,290.20238116700057,290.19187833400065,286.7938385840025,,,,,,,,,,,33799,001,2025-10-22_14h02.56.650,regret_experiment,2024.2.4,None,1,0.7,0.5,0.2,2025-10-22 14h03.11.404630 -0700,
58,0,58,right,0.5213265839993255,None,None,,,58,0,58,0,290.20238116700057,,,,,,,,,290.19253408400255,290.20238116700057,-0.0007574169940198772,291.1864978340018,59,1,0.7,0.5,0.2,291.1870680840002,291.19326741700206,291.19326741700206,291.19326741700206,291.19326741700206,291.72109150000324,right,0.5213265839993255,None,right,0.5213265839993255,0.2,0,291.74968508400343,291.7579998750007,291.7579998750007,291.7579998750007,291.7579998750007,293.7254868750024,NA,NA,293.72612570899946,293.72619800000393,None,293.726304667005,293.73566500000015,294.7261485840063,294.71965516700584,291.19326741700206,,,,,,,,,,,33799,001,2025-10-22_14h02.56.650,regret_experiment,2024.2.4,None,1,0.7,0.5,0.2,2025-10-22 14h03.11.404630 -0700,
59,0,59,up,0.694431291994988,None,None,,,59,0,59,0,294.7261485840063,,,,,,,,,294.7205582090028,294.7261485840063,-2.891600161092356e-05,295.7199546250049,60,1,0.7,0.5,0.2,295.7205000419999,295.7264423750021,295.7264423750021,295.7264423750021,295.7264423750021,296.4260699170045,up,0.694431291994988,None,up,0.694431291994988,0.5,0,296.43965733400546,296.4475376670016,296.4475376670016,296.4475376670016,296.4475376670016,298.435907209001,NA,NA,298.43681416700565,298.43692804199964,None,298.43708754200634,298.442792834001,299.49046375000034,299.4363379589995,295.7264423750021,,,,,,,,,,,33799,001,2025-10-22_14h02.56.650,regret_experiment,2024.2.4,None,1,0.7,0.5,0.2,2025-10-22 14h03.11.404630 -0700,
,,,,,,,,,,,,,,,,,,,,,,,,,,,,,,,,,,,,,,,,,,,,,,,,,,,,,,,,,,,,,,,,,,,N/A,299.48050804200466,299.49046375000034,,,,,,,,,,,,
