thisN,thisTrialN,thisRepN,key_resp_1.keys,key_resp_1.rt,key_resp_1.duration,regret_key.keys,regret_key.rt,regret_key.duration,trials.thisRepN,trials.thisTrialN,trials.thisN,trials.thisIndex,thisRow.t,notes,begin_exp.started,begin.started,advance_key.started,begin_exp.stopped,advance_key.keys,advance_key.rt,advance_key.duration,Fixation.started,fixcross.started,etRecord.started,Fixation.stopped,trial_num,participant_cond,prob_left,prob_up,prob_right,Choice.started,tree1_img.started,tree2_img.started,tree3_img.started,key_resp_1.started,Choice.stopped,trials.key_resp_1.keys,trials.key_resp_1.rt,trials.key_resp_1.duration,choice_key,choice_rt,choice_prob,points,Feedback.started,appleImage.started,tree1.started,tree2.started,tree3.started,Feedback.stopped,regret_rating,regret_rt,RegretRating.started,RegretRating.stopped,trials.regret_key.keys,ITI.started,blank_screen.started,ITI.stopped,blank_screen.stopped,fixcross.stopped,regret_scale.started,regret_key.started,rtree1.started,rtree2.started,rtree3.started,trials.regret_key.rt,trials.regret_key.duration,avg_regret,EndScreen.started,end_display.started,participant,session,date,expName,psychopyVersion,frameRate,participant_cond,prob_left,prob_up,prob_right,expStart,
,,,,,,,,,,,,,,,0.059142874990357086,0.09389370899589267,0.09389370899589267,6.120467791988631,space,6.016999792002025,None,,,,,,1,0.7,0.5,0.2,,,,,,,,,,,,,,,,,,,,,,,,,,,,,,,,,,,,,,,,33835,001,2025-10-29_15h15.44.929,regret_experiment,2024.2.4,120.97707083044881,1,0.7,0.5,0.2,2025-10-29 15h16.00.550616 -0700,
0,0,0,up,8.278200249988004,None,None,,,0,0,0,0,6.686239417002071,,,,,,,,,6.129397666998557,6.686239417002071,0.008850375001202337,7.123704124998767,1,1,0.7,0.5,0.2,7.124252333989716,7.141307083991705,7.141307083991705,7.141307083991705,7.141307083991705,15.426657042000443,up,8.278200249988004,None,up,8.278200249988004,0.5,1,15.476866041994072,15.495140667000669,15.495140667000669,15.495140667000669,15.495140667000669,17.434443749996717,NA,NA,17.43482683399634,17.434884041998885,None,17.434970791990054,17.44039633400098,18.657545708992984,,,,,,,,,,,,,33835,001,2025-10-29_15h15.44.929,regret_experiment,2024.2.4,120.97707083044881,1,0.7,0.5,0.2,2025-10-29 15h16.00.550616 -0700,
1,0,1,up,0.8852317499986384,None,None,,,1,0,1,0,18.66774141699716,,,,,,,,,18.65874304198951,18.66774141699716,0.22383499999705236,19.43981879200146,2,1,0.7,0.5,0.2,19.440508999992744,19.45051695899747,19.45051695899747,19.45051695899747,19.45051695899747,20.338968166994164,up,0.8852317499986384,None,up,0.8852317499986384,0.5,1,20.35988083400298,20.372978083993075,20.372978083993075,20.372978083993075,20.372978083993075,22.340163749991916,NA,NA,22.340776958997594,22.340851208995446,None,22.340975083992817,22.351253916989663,23.33651516700047,23.343218374997377,,,,,,,,,,,,33835,001,2025-10-29_15h15.44.929,regret_experiment,2024.2.4,120.97707083044881,1,0.7,0.5,0.2,2025-10-29 15h16.00.550616 -0700,
2,0,2,up,0.5860311249998631,None,None,,,2,0,2,0,23.343218374997377,,,,,,,,,23.337394542002585,23.343218374997377,0.002401249992544763,24.33534012499149,3,1,0.7,0.5,0.2,24.33600379199197,24.342108833996463,24.342108833996463,24.342108833996463,24.342108833996463,24.936628291994566,up,0.5860311249998631,None,up,0.5860311249998631,0.5,1,24.9638168340025,24.972621916997014,24.972621916997014,24.972621916997014,24.972621916997014,26.941526624999824,NA,NA,26.944519458993454,26.944661624991568,None,26.945219166998868,26.951077584002633,27.935496749996673,27.943362124991836,24.342108833996463,,,,,,,,,,,33835,001,2025-10-29_15h15.44.929,regret_experiment,2024.2.4,120.97707083044881,1,0.7,0.5,0.2,2025-10-29 15h16.00.550616 -0700,
3,0,3,up,1.8969033750036033,None,1,2.834282667012303,None,3,0,3,0,27.943362124991836,,,,,,,,,27.93676491700171,27.943362124991836,0.005259208002826199,28.93503745899943,4,1,0.7,0.5,0.2,28.935535874989,28.94169762499223,28.94169762499223,28.94169762499223,28.94169762499223,30.843332208998618,up,1.8969033750036033,None,up,1.8969033750036033,0.5,0,30.879179499999736,30.887904834002256,30.887904834002256,30.887904834002256,30.887904834002256,32.85126837500138,1,2.834282667012303,32.869629791995976,35.72662583399506,1,35.7267901669984,35.81452499999432,36.73465016699629,,28.94169762499223,32.88555354200071,32.88555354200071,32.88555354200071,32.88555354200071,32.88555354200071,2.834282667012303,None,,,,33835,001,2025-10-29_15h15.44.929,regret_experiment,2024.2.4,120.97707083044881,1,0.7,0.5,0.2,2025-10-29 15h16.00.550616 -0700,
4,0,4,up,0.09023262500704732,None,3,1.251625040997169,None,4,0,4,0,36.74226104198897,,,,,,,,,36.73558716700063,36.74226104198897,0.008899082997231744,37.73463741700107,5,1,0.7,0.5,0.2,37.735351333991275,37.74157204199582,37.74157204199582,37.74157204199582,37.74157204199582,37.836692208991735,up,0.09023262500704732,None,up,0.09023262500704732,0.5,0,37.86364799999865,37.87174858400249,37.87174858400249,37.87174858400249,37.87174858400249,39.83989516699512,3,1.251625040997169,39.860205958990264,41.12655349999841,3,41.12671837500238,41.13763654200011,42.12368645900278,42.13424624998879,,39.867816833997495,39.867816833997495,39.867816833997495,39.867816833997495,39.867816833997495,1.251625040997169,None,,,,33835,001,2025-10-29_15h15.44.929,regret_experiment,2024.2.4,120.97707083044881,1,0.7,0.5,0.2,2025-10-29 15h16.00.550616 -0700,
5,0,5,right,0.39554683399910573,None,3,0.9922924170095939,None,5,0,5,0,42.13424624998879,,,,,,,,,42.12474225000187,42.13424624998879,0.007653709006262943,43.11854316700192,6,1,0.7,0.5,0.2,43.11911554199469,43.12504154199269,43.12504154199269,43.12504154199269,43.12504154199269,43.526313124995795,right,0.39554683399910573,None,right,0.39554683399910573,0.2,0,43.55354899998929,43.563787416991545,43.563787416991545,43.563787416991545,43.563787416991545,45.53597612500016,3,0.9922924170095939,45.545631041997694,46.56998395899427,3,46.570160999996006,46.57993604199146,47.5687778339925,47.57616154199059,43.12504154199269,45.56723924999824,45.56723924999824,45.56723924999824,45.56723924999824,45.56723924999824,0.9922924170095939,None,,,,33835,001,2025-10-29_15h15.44.929,regret_experiment,2024.2.4,120.97707083044881,1,0.7,0.5,0.2,2025-10-29 15h16.00.550616 -0700,
6,0,6,left,0.44027587500750087,None,3,0.7371119170129532,None,6,0,6,0,47.57616154199059,,,,,,,,,47.569813833993976,47.57616154199059,-0.00025404099142178893,48.56869766699674,7,1,0.7,0.5,0.2,48.56929495900113,48.57510408399685,48.57510408399685,48.57510408399685,48.57510408399685,49.019656292002765,left,0.44027587500750087,None,left,0.44027587500750087,0.7,0,49.04733312499593,49.05561804199533,49.05561804199533,49.05561804199533,49.05561804199533,51.02345266699558,3,0.7371119170129532,51.04060983400268,51.792713666989584,3,51.79288129199995,51.804255750001175,52.79034999999567,52.80099579200032,48.57510408399685,51.04824999999255,51.04824999999255,51.04824999999255,51.04824999999255,51.04824999999255,0.7371119170129532,None,,,,33835,001,2025-10-29_15h15.44.929,regret_experiment,2024.2.4,120.97707083044881,1,0.7,0.5,0.2,2025-10-29 15h16.00.550616 -0700,
7,0,7,up,0.3262838329974329,None,None,,,7,0,7,0,52.80099579200032,,,,,,,,,52.7911670839967,52.80099579200032,0.008236749999923632,53.785275709000416,8,1,0.7,0.5,0.2,53.785912334002205,53.792700874997536,53.792700874997536,53.792700874997536,53.792700874997536,54.125998874995275,up,0.3262838329974329,None,up,0.3262838329974329,0.5,1,54.154311666992726,54.16244649999135,54.16244649999135,54.16244649999135,54.16244649999135,56.13477362500271,NA,NA,56.1354031249939,56.13551470899256,None,56.135656583996024,56.14080541700241,57.13552091699967,57.14312516700011,53.792700874997536,,,,,,,,,,,33835,001,2025-10-29_15h15.44.929,regret_experiment,2024.2.4,120.97707083044881,1,0.7,0.5,0.2,2025-10-29 15h16.00.550616 -0700,
8,0,8,right,0.8735052090050885,None,3,1.0731479170062812,None,8,0,8,0,57.14312516700011,,,,,,,,,57.136364416990546,57.14312516700011,0.000795917003415525,58.13545079198957,9,1,0.7,0.5,0.2,58.136057999989134,58.142403208999895,58.142403208999895,58.142403208999895,58.142403208999895,59.019877291997545,right,0.8735052090050885,None,right,0.8735052090050885,0.2,0,59.03294674999779,59.03966854199825,59.03966854199825,59.03966854199825,59.03966854199825,61.02402650000295,3,1.0731479170062812,61.030817209000816,62.11882712499937,3,62.11889254199923,62.126561208991916,63.11778241700085,63.1251073750027,58.142403208999895,61.037961666996125,61.037961666996125,61.037961666996125,61.037961666996125,61.037961666996125,1.0731479170062812,None,,,,33835,001,2025-10-29_15h15.44.929,regret_experiment,2024.2.4,120.97707083044881,1,0.7,0.5,0.2,2025-10-29 15h16.00.550616 -0700,
9,0,9,up,0.4159908750007162,None,3,0.8106326249981066,None,9,0,9,0,63.1251073750027,,,,,,,,,63.11952266699518,63.1251073750027,0.0007565420091850683,64.11847970899544,10,1,0.7,0.5,0.2,64.119065958992,64.12778108399652,64.12778108399652,64.12778108399652,64.12778108399652,64.55353716699756,up,0.4159908750007162,None,up,0.4159908750007162,0.5,0,64.58652383399021,64.59855008398881,64.59855008398881,64.59855008398881,64.59855008398881,66.55684691699571,3,0.8106326249981066,66.56507425000018,67.39931154200167,3,67.39938070900098,67.40375866700197,68.39050729200244,68.40121591699426,64.12778108399652,66.5754598749918,66.5754598749918,66.5754598749918,66.5754598749918,66.5754598749918,0.8106326249981066,None,,,,33835,001,2025-10-29_15h15.44.929,regret_experiment,2024.2.4,120.97707083044881,1,0.7,0.5,0.2,2025-10-29 15h16.00.550616 -0700,
10,0,10,left,0.9047414160013432,None,None,,,10,0,10,0,68.40121591699426,,,,,,,,,68.39138183399336,68.40121591699426,0.0019641669932752848,69.38489029199991,11,1,0.7,0.5,0.2,69.38544304198876,69.3911435839982,69.3911435839982,69.3911435839982,69.3911435839982,70.30314249999356,left,0.9047414160013432,None,left,0.9047414160013432,0.7,1,70.33072349999566,70.3404314169893,70.3404314169893,70.3404314169893,70.3404314169893,72.30690991699521,NA,NA,72.30760804199963,72.3077114589978,None,72.30793933400128,72.31777883399627,73.30207658399013,73.30878804199165,69.3911435839982,,,,,,,,,,,33835,001,2025-10-29_15h15.44.929,regret_experiment,2024.2.4,120.97707083044881,1,0.7,0.5,0.2,2025-10-29 15h16.00.550616 -0700,
11,0,11,up,1.49510979099432,None,None,,,11,0,11,0,73.30878804199165,,,,,,,,,73.30309000000125,73.30878804199165,0.0009917080024024472,74.30204158400011,12,1,0.7,0.5,0.2,74.30254620900087,74.30821841699071,74.30821841699071,74.30821841699071,74.30821841699071,75.81130116699205,up,1.49510979099432,None,up,1.49510979099432,0.5,1,75.8344051669992,75.84283012499509,75.84283012499509,75.84283012499509,75.84283012499509,77.81820658399374,NA,NA,77.81891687499592,77.81902874998923,None,77.81915516700246,77.82450612499088,78.81846149999183,78.82541279199359,74.30821841699071,,,,,,,,,,,33835,001,2025-10-29_15h15.44.929,regret_experiment,2024.2.4,120.97707083044881,1,0.7,0.5,0.2,2025-10-29 15h16.00.550616 -0700,
12,0,12,left,0.6295272089919308,None,None,,,12,0,12,0,78.82541279199359,,,,,,,,,78.81910391699057,78.82541279199359,3.3125004847534e-05,79.81853529199725,13,1,0.7,0.5,0.2,79.8189025419997,79.82495462500083,79.82495462500083,79.82495462500083,79.82495462500083,80.45900570899539,left,0.6295272089919308,None,left,0.6295272089919308,0.7,1,80.48979745899851,80.5037203339889,80.5037203339889,80.5037203339889,80.5037203339889,82.46824000000197,NA,NA,82.46894683399296,82.46904387499671,None,82.46917145900079,82.47471237499849,83.45837158399809,83.46703691699076,79.82495462500083,,,,,,,,,,,33835,001,2025-10-29_15h15.44.929,regret_experiment,2024.2.4,120.97707083044881,1,0.7,0.5,0.2,2025-10-29 15h16.00.550616 -0700,
13,0,13,up,0.4038712920009857,None,None,,,13,0,13,0,83.46703691699076,,,,,,,,,83.45912516699173,83.46703691699076,0.0032238750136457384,84.4515132499946,14,1,0.7,0.5,0.2,84.45203674999357,84.46778070899018,84.46778070899018,84.46778070899018,84.46778070899018,84.87638849999348,up,0.4038712920009857,None,up,0.4038712920009857,0.5,1,84.90123566699913,84.91084887499164,84.91084887499164,84.91084887499164,84.91084887499164,86.88469758399879,NA,NA,86.88555045900284,86.88567008399696,None,86.88585587499256,86.89157404199068,87.88563424999302,87.89304416699451,84.45682504199794,,,,,,,,,,,33835,001,2025-10-29_15h15.44.929,regret_experiment,2024.2.4,120.97707083044881,1,0.7,0.5,0.2,2025-10-29 15h16.00.550616 -0700,
14,0,14,left,0.7795374999986961,None,3,0.7577647919970332,None,14,0,14,0,87.89304416699451,,,,,,,,,87.88648687499517,87.89304416699451,0.0007676660025026649,88.88527587499993,15,1,0.7,0.5,0.2,88.8858289589989,88.89163704199018,88.89163704199018,88.89163704199018,88.89163704199018,89.6761517499981,left,0.7795374999986961,None,left,0.7795374999986961,0.7,0,89.7059487499937,89.71576345899666,89.71576345899666,89.71576345899666,89.71576345899666,91.68480474999524,3,0.7577647919970332,91.70426208399294,92.47712887499074,3,92.47733937499288,92.55061287499848,93.48488191700017,,88.89163704199018,91.71363958399161,91.71363958399161,91.71363958399161,91.71363958399161,91.71363958399161,0.7577647919970332,None,,,,33835,001,2025-10-29_15h15.44.929,regret_experiment,2024.2.4,120.97707083044881,1,0.7,0.5,0.2,2025-10-29 15h16.00.550616 -0700,
15,0,15,up,0.46946487500099465,None,None,,,15,0,15,0,93.49276741700305,,,,,,,,,93.48580999999831,93.49276741700305,0.008596958010457456,94.4836944169947,16,1,0.7,0.5,0.2,94.48435562499799,94.49006595899118,94.49006595899118,94.49006595899118,94.49006595899118,94.96997725000256,up,0.46946487500099465,None,up,0.46946487500099465,0.5,1,94.99683683399053,95.00517983399914,95.00517983399914,95.00517983399914,95.00517983399914,96.97414620900236,NA,NA,96.97483549999015,96.9749278340023,None,96.97505158399872,96.98466712499794,97.96880291699199,97.97605333400134,,,,,,,,,,,,33835,001,2025-10-29_15h15.44.929,regret_experiment,2024.2.4,120.97707083044881,1,0.7,0.5,0.2,2025-10-29 15h16.00.550616 -0700,
16,0,16,up,1.223590209003305,None,None,,,16,0,16,0,97.97605333400134,,,,,,,,,97.9699054590019,97.97605333400134,0.001127541996538639,98.96881700000085,17,1,0.7,0.5,0.2,98.96948533398972,98.97533779199875,98.97533779199875,98.97533779199875,98.97533779199875,100.20270833399263,up,1.223590209003305,None,up,1.223590209003305,0.5,1,100.22959104199253,100.24493837499176,100.24493837499176,100.24493837499176,100.24493837499176,102.20746791698912,NA,NA,102.20830924999609,102.20839400000114,None,102.20849066699157,102.21735691699723,103.20121012500022,103.20685566699831,98.97533779199875,,,,,,,,,,,33835,001,2025-10-29_15h15.44.929,regret_experiment,2024.2.4,120.97707083044881,1,0.7,0.5,0.2,2025-10-29 15h16.00.550616 -0700,
17,0,17,up,0.712335708012688,None,2,0.4729878340003779,None,17,0,17,0,103.20685566699831,,,,,,,,,103.20220895900275,103.20685566699831,0.00991812499705702,104.19104204200266,18,1,0.7,0.5,0.2,104.19125562500267,104.20705629199801,104.20705629199801,104.20705629199801,104.20705629199801,104.92740575000062,up,0.712335708012688,None,up,0.712335708012688,0.5,0,104.94242745899828,104.94929866699385,104.94929866699385,104.94929866699385,104.94929866699385,106.93454575000214,2,0.4729878340003779,106.94888450000144,107.43672587499896,2,107.4368805839913,107.44675999999163,108.4355156669917,108.4430077500001,104.20064879200072,106.95787162499619,106.95787162499619,106.95787162499619,106.95787162499619,106.95787162499619,0.4729878340003779,None,,,,33835,001,2025-10-29_15h15.44.929,regret_experiment,2024.2.4,120.97707083044881,1,0.7,0.5,0.2,2025-10-29 15h16.00.550616 -0700,
18,0,18,left,0.42094799999904353,None,2,0.6280162089969963,None,18,0,18,0,108.4430077500001,,,,,,,,,108.43635491699388,108.4430077500001,-0.00043679200462065637,109.43549324999913,19,1,0.7,0.5,0.2,109.43604762500036,109.44209245899401,109.44209245899401,109.44209245899401,109.44209245899401,109.8700519999984,left,0.42094799999904353,None,left,0.42094799999904353,0.7,0,109.89673008400132,109.9058492089971,109.9058492089971,109.9058492089971,109.9058492089971,111.87352949999331,2,0.6280162089969963,111.89060600000084,112.53641504199186,2,112.53657158400165,112.54703195899492,113.53549062499951,113.54317354199884,109.44209245899401,111.89946979199885,111.89946979199885,111.89946979199885,111.89946979199885,111.89946979199885,0.6280162089969963,None,,,,33835,001,2025-10-29_15h15.44.929,regret_experiment,2024.2.4,120.97707083044881,1,0.7,0.5,0.2,2025-10-29 15h16.00.550616 -0700,
19,0,19,up,0.4643843329977244,None,2,0.5885083329922054,None,19,0,19,0,113.54317354199884,,,,,,,,,113.53652499998861,113.54317354199884,4.0624989196658134e-05,114.53552487499837,20,1,0.7,0.5,0.2,114.53627916699043,114.54208808399562,114.54208808399562,114.54208808399562,114.54208808399562,115.00909179200244,up,0.4643843329977244,None,up,0.4643843329977244,0.5,0,115.03610120899975,115.04378216699115,115.04378216699115,115.04378216699115,115.04378216699115,117.0179672499944,2,0.5885083329922054,117.0350257090031,117.63672116700036,2,117.63687066698913,117.64607641698967,118.63525174999086,118.64113191700017,114.54208808399562,117.04231404200254,117.04231404200254,117.04231404200254,117.04231404200254,117.04231404200254,0.5885083329922054,None,,,,33835,001,2025-10-29_15h15.44.929,regret_experiment,2024.2.4,120.97707083044881,1,0.7,0.5,0.2,2025-10-29 15h16.00.550616 -0700,
20,0,20,right,0.3555612909985939,None,3,0.3206816669990076,None,20,0,20,0,118.64113191700017,,,,,,,,,118.63595845899545,118.64113191700017,-0.000831749988719821,119.63652724999702,21,1,0.7,0.5,0.2,119.63691804200062,119.65194458399492,119.65194458399492,119.65194458399492,119.65194458399492,120.01891137499479,right,0.3555612909985939,None,right,0.3555612909985939,0.2,0,120.0313552919979,120.03880441699584,120.03880441699584,120.03880441699584,120.03880441699584,122.02396504199714,3,0.3206816669990076,122.03161012499186,122.36901445899275,3,122.36912037499133,122.37537358400004,123.36896558399894,123.37657349999063,119.65194458399492,122.0378613339999,122.0378613339999,122.0378613339999,122.0378613339999,122.0378613339999,0.3206816669990076,None,,,,33835,001,2025-10-29_15h15.44.929,regret_experiment,2024.2.4,120.97707083044881,1,0.7,0.5,0.2,2025-10-29 15h16.00.550616 -0700,
21,0,21,left,0.272182458997122,None,None,,,21,0,21,0,123.37657349999063,,,,,,,,,123.36991170900001,123.37657349999063,0.0008656669961055741,124.36880995899264,22,1,0.7,0.5,0.2,124.3693311669922,124.37496366699634,124.37496366699634,124.37496366699634,124.37496366699634,124.65340595899033,left,0.272182458997122,None,left,0.272182458997122,0.7,1,124.67929054200067,124.68732033399283,124.68732033399283,124.68732033399283,124.68732033399283,126.65757220899104,NA,NA,126.65820629199152,126.65829533399665,None,126.65840466698864,126.66747020899493,127.65170008399582,127.656847249993,124.37496366699634,,,,,,,,,,,33835,001,2025-10-29_15h15.44.929,regret_experiment,2024.2.4,120.97707083044881,1,0.7,0.5,0.2,2025-10-29 15h16.00.550616 -0700,
22,0,22,left,0.45610158299678005,None,None,,,22,0,22,0,127.656847249993,,,,,,,,,127.65228920899972,127.656847249993,0.008015041996259242,128.63998133399582,23,1,0.7,0.5,0.2,128.64032395899994,128.6553452090011,128.6553452090011,128.6553452090011,128.6553452090011,129.11993975000223,left,0.45610158299678005,None,left,0.45610158299678005,0.7,1,129.14506083399465,129.15318216699234,129.15318216699234,129.15318216699234,129.15318216699234,131.1236860420031,NA,NA,131.1242998749949,131.12438566698984,None,131.12448858399875,131.13451354199788,132.11864195899398,132.12474079200183,128.65000033398974,,,,,,,,,,,33835,001,2025-10-29_15h15.44.929,regret_experiment,2024.2.4,120.97707083044881,1,0.7,0.5,0.2,2025-10-29 15h16.00.550616 -0700,
23,0,23,up,0.3174755000072764,None,None,,,23,0,23,0,132.12474079200183,,,,,,,,,132.11937837499136,132.12474079200183,0.0003736670041689649,133.11845899999025,24,1,0.7,0.5,0.2,133.11912750000192,133.1300889999984,133.1300889999984,133.1300889999984,133.1300889999984,133.45274437499756,up,0.3174755000072764,None,up,0.3174755000072764,0.5,1,133.47845279199828,133.48662104200048,133.48662104200048,133.48662104200048,133.48662104200048,135.4575370419916,NA,NA,135.45815620900248,135.45825362499454,None,135.45836354199855,135.46801316700294,136.4520727499912,136.45886204199633,133.1300889999984,,,,,,,,,,,33835,001,2025-10-29_15h15.44.929,regret_experiment,2024.2.4,120.97707083044881,1,0.7,0.5,0.2,2025-10-29 15h16.00.550616 -0700,
24,0,24,up,0.31250358300167136,None,3,0.782176916996832,None,24,0,24,0,136.45886204199633,,,,,,,,,136.45318004199362,136.45886204199633,0.0006205829995451495,137.45193566699163,25,1,0.7,0.5,0.2,137.45241633399564,137.45817429199815,137.45817429199815,137.45817429199815,137.45817429199815,137.77688870899146,up,0.31250358300167136,None,up,0.31250358300167136,0.5,0,137.8049472089915,137.81302991700068,137.81302991700068,137.81302991700068,137.81302991700068,139.78495779199875,3,0.782176916996832,139.80160079199413,140.59370162499545,3,140.59387833399524,140.60461795899027,141.59081979199254,141.60114691698982,137.45817429199815,139.80892912499257,139.80892912499257,139.80892912499257,139.80892912499257,139.80892912499257,0.782176916996832,None,,,,33835,001,2025-10-29_15h15.44.929,regret_experiment,2024.2.4,120.97707083044881,1,0.7,0.5,0.2,2025-10-29 15h16.00.550616 -0700,
25,0,25,left,0.463017582995235,None,None,,,25,0,25,0,141.60114691698982,,,,,,,,,141.59166116699635,141.60114691698982,0.007401665992802009,142.58553795899206,26,1,0.7,0.5,0.2,142.58621979199233,142.59237425000174,142.59237425000174,142.59237425000174,142.59237425000174,143.05935458399472,left,0.463017582995235,None,left,0.463017582995235,0.7,1,143.08490112499567,143.09316270900308,143.09316270900308,143.09316270900308,143.09316270900308,145.06818970899621,NA,NA,145.0688720420003,145.0689704999968,None,145.069074250001,145.07406008399266,146.0572814999905,146.0679076249944,142.59237425000174,,,,,,,,,,,33835,001,2025-10-29_15h15.44.929,regret_experiment,2024.2.4,120.97707083044881,1,0.7,0.5,0.2,2025-10-29 15h16.00.550616 -0700,
26,0,26,left,0.9552765420085052,None,2,0.41240691699204035,None,26,0,26,0,146.0679076249944,,,,,,,,,146.05801320899627,146.0679076249944,0.004064124994329177,147.05207245900237,27,1,0.7,0.5,0.2,147.05262433399912,147.06788429200242,147.06788429200242,147.06788429200242,147.06788429200242,148.02622499999416,left,0.9552765420085052,None,left,0.9552765420085052,0.7,0,148.05320483399555,148.06183329199848,148.06183329199848,148.06183329199848,148.06183329199848,150.03493412499665,2,0.41240691699204035,150.05203412499395,150.47660845899372,2,150.47676983400015,150.48795116700057,151.47409933399467,151.4840909170016,147.05748933399445,150.05944362499577,150.05944362499577,150.05944362499577,150.05944362499577,150.05944362499577,0.41240691699204035,None,,,,33835,001,2025-10-29_15h15.44.929,regret_experiment,2024.2.4,120.97707083044881,1,0.7,0.5,0.2,2025-10-29 15h16.00.550616 -0700,
27,0,27,up,0.27771358301106375,None,2,0.597869332996197,None,27,0,27,0,151.4840909170016,,,,,,,,,151.47477529199386,151.4840909170016,0.00744541700987611,152.46874749999552,28,1,0.7,0.5,0.2,152.46959829199477,152.47588133400131,152.47588133400131,152.47588133400131,152.47588133400131,152.75848845898872,up,0.27771358301106375,None,up,0.27771358301106375,0.5,0,152.7852938750002,152.79329491699173,152.79329491699173,152.79329491699173,152.79329491699173,154.76822212499974,2,0.597869332996197,154.78501295899332,155.39325983398885,2,155.39342158399813,155.40507204199093,156.39243354200153,156.40043262499967,152.47588133400131,154.79257024999242,154.79257024999242,154.79257024999242,154.79257024999242,154.79257024999242,0.597869332996197,None,,,,33835,001,2025-10-29_15h15.44.929,regret_experiment,2024.2.4,120.97707083044881,1,0.7,0.5,0.2,2025-10-29 15h16.00.550616 -0700,
28,0,28,left,0.215079165995121,None,None,,,28,0,28,0,156.40043262499967,,,,,,,,,156.3927453340002,156.40043262499967,-0.0006157089956104755,157.38539341698925,29,1,0.7,0.5,0.2,157.38591829199868,157.3915029589989,157.3915029589989,157.3915029589989,157.3915029589989,157.60948254200048,left,0.215079165995121,None,left,0.215079165995121,0.7,1,157.6352484169911,157.64382262500294,157.64382262500294,157.64382262500294,157.64382262500294,159.6181853750022,NA,NA,159.61869720899267,159.61878770899784,None,159.61889266700018,159.6240108339989,160.6078325839917,160.61774520899053,157.3915029589989,,,,,,,,,,,33835,001,2025-10-29_15h15.44.929,regret_experiment,2024.2.4,120.97707083044881,1,0.7,0.5,0.2,2025-10-29 15h16.00.550616 -0700,
29,0,29,left,1.5769122499914374,None,None,,,29,0,29,0,160.61774520899053,,,,,,,,,160.6088204169937,160.61774520899053,0.004119417004403658,161.60230329199112,30,1,0.7,0.5,0.2,161.6028915420029,161.60936195899558,161.60936195899558,161.60936195899558,161.60936195899558,163.19367829199473,left,1.5769122499914374,None,left,1.5769122499914374,0.7,1,163.22159212500264,163.23065299999143,163.23065299999143,163.23065299999143,163.23065299999143,165.20150499999,NA,NA,165.20222970900068,165.20234499999788,None,165.20249287498882,165.2079802090011,166.2020013750007,166.2081086669932,161.60936195899558,,,,,,,,,,,33835,001,2025-10-29_15h15.44.929,regret_experiment,2024.2.4,120.97707083044881,1,0.7,0.5,0.2,2025-10-29 15h16.00.550616 -0700,
30,0,30,up,0.32857545900333207,None,None,,,30,0,30,0,166.2081086669932,,,,,,,,,166.20244766699034,166.2081086669932,2.4791996111162007e-05,167.20219658399583,31,1,0.7,0.5,0.2,167.20293849999143,167.20777166700282,167.20777166700282,167.20777166700282,167.20777166700282,167.54269587500312,up,0.32857545900333207,None,up,0.32857545900333207,0.5,1,167.55437120900024,167.56163420899247,167.56163420899247,167.56163420899247,167.56163420899247,169.55067495899857,NA,NA,169.55111291698995,169.5511558339931,None,169.5512276669906,169.55563741699734,170.54135449999012,170.5511747089913,167.20777166700282,,,,,,,,,,,33835,001,2025-10-29_15h15.44.929,regret_experiment,2024.2.4,120.97707083044881,1,0.7,0.5,0.2,2025-10-29 15h16.00.550616 -0700,
31,0,31,left,2.4022093340026913,None,None,,,31,0,31,0,170.5511747089913,,,,,,,,,170.54169549999642,170.5511747089913,8.966599125415087e-05,171.53489116700075,32,1,0.7,0.5,0.2,171.53522799999337,171.54161941699567,171.54161941699567,171.54161941699567,171.54161941699567,173.9538617090002,left,2.4022093340026913,None,left,2.4022093340026913,0.7,1,173.97883524998906,173.98774958399008,173.98774958399008,173.98774958399008,173.98774958399008,175.9570325419918,NA,NA,175.9577052090026,175.95779216699884,None,175.95791354199173,175.96798420899722,176.95255520899082,176.95929045899538,171.54161941699567,,,,,,,,,,,33835,001,2025-10-29_15h15.44.929,regret_experiment,2024.2.4,120.97707083044881,1,0.7,0.5,0.2,2025-10-29 15h16.00.550616 -0700,
32,0,32,up,1.1365761670022039,None,None,,,32,0,32,0,176.95929045899538,,,,,,,,,176.95344645899604,176.95929045899538,0.0015080000011948869,177.95223712499137,33,1,0.7,0.5,0.2,177.95278920899727,177.95865466698888,177.95865466698888,177.95865466698888,177.95865466698888,179.10340762499254,up,1.1365761670022039,None,up,1.1365761670022039,0.5,0,179.1326834999927,179.14106708399777,179.14106708399777,179.14106708399777,179.14106708399777,181.10674933399423,NA,NA,181.1073217499943,181.10741174999566,None,181.10752433400194,181.11824641699786,182.1022396670014,182.10829162500158,177.95865466698888,,,,,,,,,,,33835,001,2025-10-29_15h15.44.929,regret_experiment,2024.2.4,120.97707083044881,1,0.7,0.5,0.2,2025-10-29 15h16.00.550616 -0700,
33,0,33,left,1.4446707500028424,None,None,,,33,0,33,0,182.10829162500158,,,,,,,,,182.10289974999614,182.10829162500158,0.0008963750005932525,183.10247649998928,34,1,0.7,0.5,0.2,183.10318224999355,183.109092624989,183.109092624989,183.109092624989,183.109092624989,184.55925087499782,left,1.4446707500028424,None,left,1.4446707500028424,0.7,1,184.58519708400127,184.59466799999063,184.59466799999063,184.59466799999063,184.59466799999063,186.56841916700068,NA,NA,186.56911075000244,186.5692012090003,None,186.56934416700096,186.57459191700036,187.56927312500193,187.57680166698992,183.109092624989,,,,,,,,,,,33835,001,2025-10-29_15h15.44.929,regret_experiment,2024.2.4,120.97707083044881,1,0.7,0.5,0.2,2025-10-29 15h16.00.550616 -0700,
34,0,34,up,1.5840284579899162,None,None,,,34,0,34,0,187.57680166698992,,,,,,,,,187.57029808399966,187.57680166698992,0.001047458004904911,188.56886783399386,35,1,0.7,0.5,0.2,188.56941341698985,188.5754814589891,188.5754814589891,188.5754814589891,188.5754814589891,190.1706127919897,up,1.5840284579899162,None,up,1.5840284579899162,0.5,0,190.19854991699685,190.20668920899334,190.20668920899334,190.20668920899334,190.20668920899334,192.17452404199867,NA,NA,192.17504404200008,192.17508670900133,None,192.17513649999455,192.1846845419932,193.16896774999623,193.17600291699637,188.5754814589891,,,,,,,,,,,33835,001,2025-10-29_15h15.44.929,regret_experiment,2024.2.4,120.97707083044881,1,0.7,0.5,0.2,2025-10-29 15h16.00.550616 -0700,
35,0,35,left,0.6307154589885613,None,None,,,35,0,35,0,193.17600291699637,,,,,,,,,193.16991654199956,193.17600291699637,0.0009734170016599819,194.16893299999356,36,1,0.7,0.5,0.2,194.16958487499505,194.1765220840025,194.1765220840025,194.1765220840025,194.1765220840025,194.80995549999352,left,0.6307154589885613,None,left,0.6307154589885613,0.7,0,194.83827033400303,194.846466959003,194.846466959003,194.846466959003,194.846466959003,196.8183880419965,NA,NA,196.8189707089914,196.81905837499653,None,196.81916099999216,196.82428375000018,197.81893929200305,197.82636574999196,194.1765220840025,,,,,,,,,,,33835,001,2025-10-29_15h15.44.929,regret_experiment,2024.2.4,120.97707083044881,1,0.7,0.5,0.2,2025-10-29 15h16.00.550616 -0700,
36,0,36,up,0.5897792500036303,None,None,,,36,0,36,0,197.82636574999196,,,,,,,,,197.8199339589919,197.82636574999196,0.0008612079982412979,198.81902399999672,37,1,0.7,0.5,0.2,198.81963995899423,198.82555333399796,198.82555333399796,198.82555333399796,198.82555333399796,199.42037941700255,up,0.5897792500036303,None,up,0.5897792500036303,0.5,1,199.44548354198923,199.45342683399213,199.45342683399213,199.45342683399213,199.45342683399213,201.42371699999785,NA,NA,201.42434612500074,201.42443358399032,None,201.42453808400023,201.43498679199547,202.41915649999282,202.425969584001,198.82555333399796,,,,,,,,,,,33835,001,2025-10-29_15h15.44.929,regret_experiment,2024.2.4,120.97707083044881,1,0.7,0.5,0.2,2025-10-29 15h16.00.550616 -0700,
37,0,37,up,1.085287875001086,None,None,,,37,0,37,0,202.425969584001,,,,,,,,,202.42003024999576,202.425969584001,0.0015532499965047464,203.41854824998882,38,1,0.7,0.5,0.2,203.41926204199262,203.4249852919893,203.4249852919893,203.4249852919893,203.4249852919893,204.51975812499586,up,1.085287875001086,None,up,1.085287875001086,0.5,0,204.54833024999243,204.59263083399856,204.59263083399856,204.59263083399856,204.59263083399856,206.52427283399447,NA,NA,206.52488883399928,206.524979875001,None,206.5254561670008,206.53467008400185,207.51931266699103,207.52638629199646,203.4249852919893,,,,,,,,,,,33835,001,2025-10-29_15h15.44.929,regret_experiment,2024.2.4,120.97707083044881,1,0.7,0.5,0.2,2025-10-29 15h16.00.550616 -0700,
38,0,38,left,1.0899251660011942,None,None,,,38,0,38,0,207.52638629199646,,,,,,,,,207.52039779200277,207.52638629199646,0.001377917011268437,208.5189073340007,39,1,0.7,0.5,0.2,208.51963441699627,208.52583320900158,208.52583320900158,208.52583320900158,208.52583320900158,209.62211912499333,left,1.0899251660011942,None,left,1.0899251660011942,0.7,1,209.6361577919888,209.64522520899482,209.64522520899482,209.64522520899482,209.64522520899482,211.62432695899042,NA,NA,211.6251489999995,211.62524937499256,None,211.62539437499072,211.63404766700114,212.61873495898908,212.6242922090023,208.52583320900158,,,,,,,,,,,33835,001,2025-10-29_15h15.44.929,regret_experiment,2024.2.4,120.97707083044881,1,0.7,0.5,0.2,2025-10-29 15h16.00.550616 -0700,
39,0,39,left,0.29583275000914,None,None,,,39,0,39,0,212.6242922090023,,,,,,,,,212.61927324999124,212.6242922090023,-0.0009748330048751086,213.60817125000176,40,1,0.7,0.5,0.2,213.6086964999995,213.624038791997,213.624038791997,213.624038791997,213.624038791997,213.92647874999966,left,0.29583275000914,None,left,0.29583275000914,0.7,1,213.95571279199794,213.96581683399563,213.96581683399563,213.96581683399563,213.96581683399563,215.9350307089917,NA,NA,215.93579124999815,215.93589829199482,None,215.93602762499359,215.94180166699516,216.93571595899994,216.94307737499184,213.61811624999973,,,,,,,,,,,33835,001,2025-10-29_15h15.44.929,regret_experiment,2024.2.4,120.97707083044881,1,0.7,0.5,0.2,2025-10-29 15h16.00.550616 -0700,
40,0,40,up,0.3936296250030864,None,None,,,40,0,40,0,216.94307737499184,,,,,,,,,216.93654220899043,216.94307737499184,0.0006053340039215982,217.93571329199767,41,1,0.7,0.5,0.2,217.9365207499941,217.9428780839953,217.9428780839953,217.9428780839953,217.9428780839953,218.34301412499917,up,0.3936296250030864,None,up,0.3936296250030864,0.5,1,218.36939358399832,218.37780412498978,218.37780412498978,218.37780412498978,218.37780412498978,220.35179762500047,NA,NA,220.3526773749909,220.35279433400137,None,220.35293158399872,220.35834299999988,221.35254687500128,221.35979587498878,217.9428780839953,,,,,,,,,,,33835,001,2025-10-29_15h15.44.929,regret_experiment,2024.2.4,120.97707083044881,1,0.7,0.5,0.2,2025-10-29 15h16.00.550616 -0700,
41,0,41,right,0.41090762500243727,None,None,,,41,0,41,0,221.35979587498878,,,,,,,,,221.3535633339925,221.35979587498878,0.0007350410014623776,222.35241066699382,42,1,0.7,0.5,0.2,222.35297129199898,222.3591274999926,222.3591274999926,222.3591274999926,222.3591274999926,222.77732866699807,right,0.41090762500243727,None,right,0.41090762500243727,0.2,0,222.80541683400224,222.81401879199257,222.81401879199257,222.81401879199257,222.81401879199257,224.7849610419944,NA,NA,224.78558370900282,224.7856595839985,None,224.785855833994,224.79105149999668,225.774856249991,225.78513974999078,222.3591274999926,,,,,,,,,,,33835,001,2025-10-29_15h15.44.929,regret_experiment,2024.2.4,120.97707083044881,1,0.7,0.5,0.2,2025-10-29 15h16.00.550616 -0700,
42,0,42,left,1.5424263329914538,None,None,,,42,0,42,0,225.78513974999078,,,,,,,,,225.7753346249956,225.78513974999078,-0.0005886669969186187,226.76826241699746,43,1,0.7,0.5,0.2,226.7685272499948,226.7845070839976,226.7845070839976,226.7845070839976,226.7845070839976,228.3356472089945,left,1.5424263329914538,None,left,1.5424263329914538,0.7,1,228.3473291249975,228.3540278750006,228.3540278750006,228.3540278750006,228.3540278750006,230.34030416699534,NA,NA,230.3409120419965,230.34098512498895,None,230.3410840419965,230.35174341699167,231.33576237499074,231.342579499993,226.77244583399442,,,,,,,,,,,33835,001,2025-10-29_15h15.44.929,regret_experiment,2024.2.4,120.97707083044881,1,0.7,0.5,0.2,2025-10-29 15h16.00.550616 -0700,
43,0,43,left,0.5609729579882696,None,None,,,43,0,43,0,231.342579499993,,,,,,,,,231.33665566699347,231.342579499993,0.0016068330005509779,232.33498616699944,44,1,0.7,0.5,0.2,232.33528166699398,232.34153937498922,232.34153937498922,232.34153937498922,232.34153937498922,232.90747204200306,left,0.5609729579882696,None,left,0.5609729579882696,0.7,1,232.9199877499923,232.92727045899665,232.92727045899665,232.92727045899665,232.92727045899665,234.90805012499914,NA,NA,234.90842983400216,234.90846495899314,None,234.90854141699674,234.91772962499817,235.90311570899212,235.90917029199773,232.34153937498922,,,,,,,,,,,33835,001,2025-10-29_15h15.44.929,regret_experiment,2024.2.4,120.97707083044881,1,0.7,0.5,0.2,2025-10-29 15h16.00.550616 -0700,
44,0,44,up,0.37076854199403897,None,None,,,44,0,44,0,235.90917029199773,,,,,,,,,235.90393241700076,235.90917029199773,0.0007630420004716143,236.90250862498942,45,1,0.7,0.5,0.2,236.9030297499994,236.90873908399954,236.90873908399954,236.90873908399954,236.90873908399954,237.28674541699002,up,0.37076854199403897,None,up,0.37076854199403897,0.5,0,237.31671895900217,237.32625420899421,237.32625420899421,237.32625420899421,237.32625420899421,239.29005899999174,NA,NA,239.2906309999962,239.2907174169959,None,239.29082054199534,239.3015624589898,240.2857162089931,240.29153999999107,236.90873908399954,,,,,,,,,,,33835,001,2025-10-29_15h15.44.929,regret_experiment,2024.2.4,120.97707083044881,1,0.7,0.5,0.2,2025-10-29 15h16.00.550616 -0700,
45,0,45,left,1.234763667001971,None,None,,,45,0,45,0,240.29153999999107,,,,,,,,,240.28642824999406,240.29153999999107,0.00083591700240504,241.28565808400162,46,1,0.7,0.5,0.2,241.2863587920001,241.2923908340017,241.2923908340017,241.2923908340017,241.2923908340017,242.53678949999448,left,1.234763667001971,None,left,1.234763667001971,0.7,1,242.56267095899966,242.57095404199208,242.57095404199208,242.57095404199208,242.57095404199208,244.54010087499046,NA,NA,244.54080991700175,244.5409259589942,None,244.5410697920015,244.55154454200238,245.53571287498926,245.54229004199442,241.2923908340017,,,,,,,,,,,33835,001,2025-10-29_15h15.44.929,regret_experiment,2024.2.4,120.97707083044881,1,0.7,0.5,0.2,2025-10-29 15h16.00.550616 -0700,
46,0,46,up,0.31275250000180677,None,None,,,46,0,46,0,245.54229004199442,,,,,,,,,245.53654074999213,245.54229004199442,0.0013581249950220808,246.53596766699047,47,1,0.7,0.5,0.2,246.53658045899647,246.54236466699513,246.54236466699513,246.54236466699513,246.54236466699513,246.85959774999355,up,0.31275250000180677,None,up,0.31275250000180677,0.5,0,246.88905637500284,246.897363666998,246.897363666998,246.897363666998,246.897363666998,248.8684962499974,NA,NA,248.86920054200164,248.86932179199357,None,248.8694492499926,248.87499208399095,249.8586941669928,249.86732999999367,246.54236466699513,,,,,,,,,,,33835,001,2025-10-29_15h15.44.929,regret_experiment,2024.2.4,120.97707083044881,1,0.7,0.5,0.2,2025-10-29 15h16.00.550616 -0700,
47,0,47,left,0.34368141600862145,None,None,,,47,0,47,0,249.86732999999367,,,,,,,,,249.85937345899583,249.86732999999367,0.0029837500042049214,250.85254104199703,48,1,0.7,0.5,0.2,250.85312254200107,250.85976579198905,250.85976579198905,250.85976579198905,250.85976579198905,251.21016120899003,left,0.34368141600862145,None,left,0.34368141600862145,0.7,0,251.23736591699708,251.2457182090002,251.2457182090002,251.2457182090002,251.2457182090002,253.2184277089982,NA,NA,253.21897204199922,253.21906066699012,None,253.2191653339978,253.22420674999012,254.2075661669951,254.2181176669983,250.85976579198905,,,,,,,,,,,33835,001,2025-10-29_15h15.44.929,regret_experiment,2024.2.4,120.97707083044881,1,0.7,0.5,0.2,2025-10-29 15h16.00.550616 -0700,
48,0,48,up,0.35093087499262765,None,None,,,48,0,48,0,254.2181176669983,,,,,,,,,254.2083716670022,254.2181176669983,-0.0009388329926878214,255.20259879199148,49,1,0.7,0.5,0.2,255.20324704199447,255.2092063750024,255.2092063750024,255.2092063750024,255.2092063750024,255.57016108398966,up,0.35093087499262765,None,up,0.35093087499262765,0.5,0,255.59747691699886,255.6060274999909,255.6060274999909,255.6060274999909,255.6060274999909,257.57433024999045,NA,NA,257.57493645900104,257.57502016700164,None,257.5751216669887,257.58434720899095,258.5693283339933,258.57599633399514,255.2092063750024,,,,,,,,,,,33835,001,2025-10-29_15h15.44.929,regret_experiment,2024.2.4,120.97707083044881,1,0.7,0.5,0.2,2025-10-29 15h16.00.550616 -0700,
49,0,49,up,0.4394149580039084,None,None,,,49,0,49,0,258.57599633399514,,,,,,,,,258.57038129199645,258.57599633399514,0.0009920000011334196,259.5689175419975,50,1,0.7,0.5,0.2,259.56966229199315,259.57609870898887,259.57609870898887,259.57609870898887,259.57609870898887,260.02050895900175,up,0.4394149580039084,None,up,0.4394149580039084,0.5,1,260.0472047499934,260.05537950000144,260.05537950000144,260.05537950000144,260.05537950000144,262.02441479200206,NA,NA,262.0251183749933,262.0252065839886,None,262.0253146249888,262.03477741699317,263.01857445899805,263.0248084999912,259.57609870898887,,,,,,,,,,,33835,001,2025-10-29_15h15.44.929,regret_experiment,2024.2.4,120.97707083044881,1,0.7,0.5,0.2,2025-10-29 15h16.00.550616 -0700,
50,0,50,up,0.34516716698999517,None,None,,,50,0,50,0,263.0248084999912,,,,,,,,,263.0194102090027,263.0248084999912,-0.00038579199463129044,264.0185060419899,51,1,0.7,0.5,0.2,264.01912374999665,264.02499812499445,264.02499812499445,264.02499812499445,264.02499812499445,264.37571908399696,up,0.34516716698999517,None,up,0.34516716698999517,0.5,0,264.4015284999914,264.4095839169895,264.4095839169895,264.4095839169895,264.4095839169895,266.3844562500017,NA,NA,266.38503729199874,266.3851126669906,None,266.3852225839946,266.39004012499936,267.3744460839953,267.3847860419919,264.02499812499445,,,,,,,,,,,33835,001,2025-10-29_15h15.44.929,regret_experiment,2024.2.4,120.97707083044881,1,0.7,0.5,0.2,2025-10-29 15h16.00.550616 -0700,
51,0,51,left,0.6553098329895874,None,None,,,51,0,51,0,267.3847860419919,,,,,,,,,267.3753856669937,267.3847860419919,-0.0003230840084142983,268.369048499997,52,1,0.7,0.5,0.2,268.36958762499853,268.3756648339913,268.3756648339913,268.3756648339913,268.3756648339913,269.03702758399595,left,0.6553098329895874,None,left,0.6553098329895874,0.7,1,269.0642602500011,269.0732045839977,269.0732045839977,269.0732045839977,269.0732045839977,271.04113891698944,NA,NA,271.04182025000046,271.04193008400034,None,271.0420798749983,271.0514017090027,272.0355128749943,272.0424253749952,268.3756648339913,,,,,,,,,,,33835,001,2025-10-29_15h15.44.929,regret_experiment,2024.2.4,120.97707083044881,1,0.7,0.5,0.2,2025-10-29 15h16.00.550616 -0700,
52,0,52,left,0.6788514579966431,None,None,,,52,0,52,0,272.0424253749952,,,,,,,,,272.03645629200037,272.0424253749952,0.000491584010887891,273.03513083398866,53,1,0.7,0.5,0.2,273.03562599999714,273.04120133399556,273.04120133399556,273.04120133399556,273.04120133399556,273.72597191699606,left,0.6788514579966431,None,left,0.6788514579966431,0.7,1,273.7558648749982,273.76515879199724,273.76515879199724,273.76515879199724,273.76515879199724,275.7350306669978,NA,NA,275.7358977089898,275.736016750001,None,275.73616237498936,275.741364542002,276.73571387499396,276.7432286669937,273.04120133399556,,,,,,,,,,,33835,001,2025-10-29_15h15.44.929,regret_experiment,2024.2.4,120.97707083044881,1,0.7,0.5,0.2,2025-10-29 15h16.00.550616 -0700,
53,0,53,left,0.5277303339971695,None,None,,,53,0,53,0,276.7432286669937,,,,,,,,,276.73656204200233,276.7432286669937,0.0004974589974153787,277.7358499169932,54,1,0.7,0.5,0.2,277.7364427499997,277.74267504199815,277.74267504199815,277.74267504199815,277.74267504199815,278.27717479199055,left,0.5277303339971695,None,left,0.5277303339971695,0.7,0,278.30560962499294,278.314304583997,278.314304583997,278.314304583997,278.314304583997,280.2852355840005,NA,NA,280.2859486669913,280.28605270899425,None,280.286169125,280.291142749993,281.2848885419953,281.2902735839889,277.74267504199815,,,,,,,,,,,33835,001,2025-10-29_15h15.44.929,regret_experiment,2024.2.4,120.97707083044881,1,0.7,0.5,0.2,2025-10-29 15h16.00.550616 -0700,
54,0,54,up,0.5020492500043474,None,None,,,54,0,54,0,281.2902735839889,,,,,,,,,281.2855728339928,281.2902735839889,-0.0005364170065149665,282.2742954169953,55,1,0.7,0.5,0.2,282.27460320899263,282.28475333399547,282.28475333399547,282.28475333399547,282.28475333399547,282.79191645899846,up,0.5020492500043474,None,up,0.5020492500043474,0.5,0,282.80397633399116,282.8110515419976,282.8110515419976,282.8110515419976,282.8110515419976,284.8019118749944,NA,NA,284.8024909999949,284.80256912499317,None,284.8026693339925,284.8077778339939,285.8024857089913,285.8085414169909,282.28475333399547,,,,,,,,,,,33835,001,2025-10-29_15h15.44.929,regret_experiment,2024.2.4,120.97707083044881,1,0.7,0.5,0.2,2025-10-29 15h16.00.550616 -0700,
55,0,55,right,0.3844842910039006,None,None,,,55,0,55,0,285.8085414169909,,,,,,,,,285.8031371669931,285.8085414169909,0.0005362500087358057,286.80119787500007,56,1,0.7,0.5,0.2,286.8014433339995,286.8062072920002,286.8062072920002,286.8062072920002,286.8062072920002,287.2020010839915,right,0.3844842910039006,None,right,0.3844842910039006,0.2,0,287.2220241670002,287.2310408339981,287.2310408339981,287.2310408339981,287.2310408339981,289.20798095899227,NA,NA,289.2086925420008,289.2087705419981,None,289.2089793339983,289.218097459001,290.2014692090015,290.207790667002,286.8062072920002,,,,,,,,,,,33835,001,2025-10-29_15h15.44.929,regret_experiment,2024.2.4,120.97707083044881,1,0.7,0.5,0.2,2025-10-29 15h16.00.550616 -0700,
56,0,56,up,0.822749750004732,None,None,,,56,0,56,0,290.207790667002,,,,,,,,,290.20232537499396,290.207790667002,0.009591499998350628,291.19100312500086,57,1,0.7,0.5,0.2,291.1916148750024,291.2076372500014,291.2076372500014,291.2076372500014,291.2076372500014,292.0371958339965,up,0.822749750004732,None,up,0.822749750004732,0.5,0,292.06453991700255,292.07294216699665,292.07294216699665,292.07294216699665,292.07294216699665,294.0412717500003,NA,NA,294.0419936669932,294.0421051669982,None,294.04224695899757,294.0515366670006,295.03568379199714,295.0420421669987,291.20182466699043,,,,,,,,,,,33835,001,2025-10-29_15h15.44.929,regret_experiment,2024.2.4,120.97707083044881,1,0.7,0.5,0.2,2025-10-29 15h16.00.550616 -0700,
57,0,57,left,0.38952487500500865,None,None,,,57,0,57,0,295.0420421669987,,,,,,,,,295.0363542499981,295.0420421669987,-5.504098953679204e-05,296.03522254199197,58,1,0.7,0.5,0.2,296.0357512920018,296.04152195899223,296.04152195899223,296.04152195899223,296.04152195899223,296.437137624991,left,0.38952487500500865,None,left,0.38952487500500865,0.7,1,296.4639334999956,296.47219316699193,296.47219316699193,296.47219316699193,296.47219316699193,298.44068545899063,NA,NA,298.44131283399474,298.44139787499444,None,298.4415126669919,298.4515592499956,299.43562887499866,299.4421668750001,296.04152195899223,,,,,,,,,,,33835,001,2025-10-29_15h15.44.929,regret_experiment,2024.2.4,120.97707083044881,1,0.7,0.5,0.2,2025-10-29 15h16.00.550616 -0700,
58,0,58,left,0.29439708300924394,None,None,,,58,0,58,0,299.4421668750001,,,,,,,,,299.436639291991,299.4421668750001,0.0007933329907245934,300.4355633749947,59,1,0.7,0.5,0.2,300.43627620900224,300.4421818749979,300.4421818749979,300.4421818749979,300.4421818749979,300.743415334,left,0.29439708300924394,None,left,0.29439708300924394,0.7,0,300.77062241699605,300.77956166699005,300.77956166699005,300.77956166699005,300.77956166699005,302.7516956670006,NA,NA,302.752364999993,302.75247241699253,None,302.75261299998965,302.75810229199124,303.75187862500024,303.7594624589983,300.4421818749979,,,,,,,,,,,33835,001,2025-10-29_15h15.44.929,regret_experiment,2024.2.4,120.97707083044881,1,0.7,0.5,0.2,2025-10-29 15h16.00.550616 -0700,
59,0,59,up,0.2563250419916585,None,None,,,59,0,59,0,303.7594624589983,,,,,,,,,303.75271541699476,303.7594624589983,0.00019574999168980867,304.75234287499916,60,1,0.7,0.5,0.2,304.75301516699255,304.7594968339981,304.7594968339981,304.7594968339981,304.7594968339981,305.0206884169893,up,0.2563250419916585,None,up,0.2563250419916585,0.5,0,305.0474370419979,305.05537508398993,305.05537508398993,305.05537508398993,305.05537508398993,307.0247185420012,NA,NA,307.0253110420017,307.0253955419903,None,307.02549604199885,307.03491358399333,308.0187200419896,308.0731295000005,304.7594968339981,,,,,,,,,,,33835,001,2025-10-29_15h15.44.929,regret_experiment,2024.2.4,120.97707083044881,1,0.7,0.5,0.2,2025-10-29 15h16.00.550616 -0700,
,,,,,,,,,,,,,,,,,,,,,,,,,,,,,,,,,,,,,,,,,,,,,,,,,,,,,,,,,,,,,,,,,,,N/A,308.0626821249898,308.0731295000005,,,,,,,,,,,,
