thisN,thisTrialN,thisRepN,key_resp_1.keys,key_resp_1.rt,key_resp_1.duration,regret_key.keys,trials.thisRepN,trials.thisTrialN,trials.thisN,trials.thisIndex,thisRow.t,notes,begin_exp.started,begin.started,advance_key.started,begin_exp.stopped,advance_key.keys,advance_key.rt,advance_key.duration,Fixation.started,fixcross.started,etRecord.started,Fixation.stopped,trial_num,participant_cond,prob_left,prob_up,prob_right,Choice.started,tree1_img.started,tree2_img.started,tree3_img.started,key_resp_1.started,Choice.stopped,trials.key_resp_1.keys,trials.key_resp_1.rt,trials.key_resp_1.duration,choice_key,choice_rt,choice_prob,points,Feedback.started,appleImage.started,tree1.started,tree2.started,tree3.started,Feedback.stopped,regret_rating,regret_rt,RegretRating.started,RegretRating.stopped,trials.regret_key.keys,ITI.started,blank_screen.started,blank_screen.stopped,ITI.stopped,fixcross.stopped,avg_regret,EndScreen.started,end_display.started,participant,session,date,expName,psychopyVersion,frameRate,participant_cond,prob_left,prob_up,prob_right,expStart,
,,,,,,,,,,,,,0.06147137499647215,0.0777046250004787,0.0777046250004787,5.532252457996947,space,5.3820647910033586,None,,,,,,0,0.5,0.7,0.2,,,,,,,,,,,,,,,,,,,,,,,,,,,,,,,,,33928,001,2025-10-22_14h41.18.164,regret_experiment,2024.2.4,None,0,0.5,0.7,0.2,2025-10-22 14h41.30.403010 -0700,
0,0,0,up,1.4257336250011576,None,None,0,0,0,0,6.171232458000304,,,,,,,,,5.534235707993503,6.171232458000304,0.0019757080008275807,6.535467082998366,1,0,0.5,0.7,0.2,6.535913874999096,6.547879166995699,6.547879166995699,6.547879166995699,6.547879166995699,7.977697582995461,up,1.4257336250011576,None,up,1.4257336250011576,0.7,0,8.011052999994718,8.025214582994522,8.025214582994522,8.025214582994522,8.025214582994522,9.98589537499356,NA,NA,9.986613207998744,9.986758332997852,None,9.98690195800009,9.993097957994905,10.994105541998579,10.98652958299499,,,,,33928,001,2025-10-22_14h41.18.164,regret_experiment,2024.2.4,None,0,0.5,0.7,0.2,2025-10-22 14h41.30.403010 -0700,
1,0,1,right,1.11819458300306,None,None,1,0,1,0,10.994105541998579,,,,,,,,,10.987428541993722,10.994105541998579,0.000644500003545545,11.985821999995096,2,0,0.5,0.7,0.2,11.98636925000028,11.992415875000006,11.992415875000006,11.992415875000006,11.992415875000006,13.121488749995478,right,1.11819458300306,None,right,1.11819458300306,0.2,0,13.149778832994343,13.159290083000087,13.159290083000087,13.159290083000087,13.159290083000087,15.124832166999113,NA,NA,15.1255354169989,15.125646332999167,None,15.125781374998041,15.135829249993549,16.12518395799998,16.11987466699793,11.992415875000006,,,,33928,001,2025-10-22_14h41.18.164,regret_experiment,2024.2.4,None,0,0.5,0.7,0.2,2025-10-22 14h41.30.403010 -0700,
2,0,2,right,1.1388947919986094,None,None,2,0,2,0,16.12518395799998,,,,,,,,,16.120180416997755,16.12518395799998,-0.00043441700108814985,17.108545582996157,3,0,0.5,0.7,0.2,17.109047999998438,17.125111124994874,17.125111124994874,17.125111124994874,17.125111124994874,18.27124854199792,right,1.1388947919986094,None,right,1.1388947919986094,0.2,0,18.299284374996205,18.322167082995293,18.322167082995293,18.322167082995293,18.322167082995293,20.275838541994744,NA,NA,20.276519082995947,20.276608624997607,None,20.276728249998996,20.28533741699357,21.276689667000028,21.270190707997244,17.11933104199852,,,,33928,001,2025-10-22_14h41.18.164,regret_experiment,2024.2.4,None,0,0.5,0.7,0.2,2025-10-22 14h41.30.403010 -0700,
3,0,3,left,0.4264783329999773,None,None,3,0,3,0,21.276689667000028,,,,,,,,,21.271025374997407,21.276689667000028,9.283299732487649e-05,22.270140041997365,4,0,0.5,0.7,0.2,22.27071108299424,22.277049291995354,22.277049291995354,22.277049291995354,22.277049291995354,22.71076945799723,left,0.4264783329999773,None,left,0.4264783329999773,0.5,0,22.737351916999614,22.746329874993535,22.746329874993535,22.746329874993535,22.746329874993535,24.719196916994406,NA,NA,24.71978354199382,24.719871875000536,None,24.719988957993337,24.725315957999555,25.718818374996772,25.709947832998296,22.277049291995354,,,,33928,001,2025-10-22_14h41.18.164,regret_experiment,2024.2.4,None,0,0.5,0.7,0.2,2025-10-22 14h41.30.403010 -0700,
4,0,4,left,1.2464157499998691,None,None,4,0,4,0,25.718818374996772,,,,,,,,,25.710586416993465,25.718818374996772,0.0044216250025783665,26.703294041995832,5,0,0.5,0.7,0.2,26.70394249999663,26.709718999998586,26.709718999998586,26.709718999998586,26.709718999998586,27.962816791994555,left,1.2464157499998691,None,left,1.2464157499998691,0.5,1,27.97812137499568,27.98705145799613,27.98705145799613,27.98705145799613,27.98705145799613,29.969025250000414,NA,NA,29.969814166994183,29.96989224999561,None,29.97004116699827,29.975232374999905,30.96908687499672,30.958575707998534,26.709718999998586,,,,33928,001,2025-10-22_14h41.18.164,regret_experiment,2024.2.4,None,0,0.5,0.7,0.2,2025-10-22 14h41.30.403010 -0700,
5,0,5,up,0.4463584999975865,None,None,5,0,5,0,30.96908687499672,,,,,,,,,30.959454207993986,30.96908687499672,-0.0008062089982558973,31.953517416994146,6,0,0.5,0.7,0.2,31.954095791996224,31.96066074999544,31.96066074999544,31.96066074999544,31.96066074999544,32.41096224999637,up,0.4463584999975865,None,up,0.4463584999975865,0.7,1,32.43567975000042,32.44461466699431,32.44461466699431,32.44461466699431,32.44461466699431,34.419070249998185,NA,NA,34.419746082996426,34.41984416699415,None,34.41998879199673,34.425154166994616,35.41847345799761,35.409105874998204,31.96066074999544,,,,33928,001,2025-10-22_14h41.18.164,regret_experiment,2024.2.4,None,0,0.5,0.7,0.2,2025-10-22 14h41.30.403010 -0700,
6,0,6,left,0.4130146669995156,None,None,6,0,6,0,35.41847345799761,,,,,,,,,35.41004766699916,35.41847345799761,0.003678458000649698,36.403348499996355,7,0,0.5,0.7,0.2,36.403883457998745,36.40987166699779,36.40987166699779,36.40987166699779,36.40987166699779,36.827263916995435,left,0.4130146669995156,None,left,0.4130146669995156,0.5,1,36.85405316700053,36.86304662499606,36.86304662499606,36.86304662499606,36.86304662499606,38.83628837499418,NA,NA,38.836975082995195,38.83708887499961,None,38.837249041993346,38.84259558299527,39.8444157079939,39.83666870799789,36.40987166699779,,,,33928,001,2025-10-22_14h41.18.164,regret_experiment,2024.2.4,None,0,0.5,0.7,0.2,2025-10-22 14h41.30.403010 -0700,
7,0,7,left,0.5642809170021792,None,None,7,0,7,0,39.8444157079939,,,,,,,,,39.837576749996515,39.8444157079939,0.00045608299842569977,40.83675841699733,8,0,0.5,0.7,0.2,40.83737674999429,40.84315062499809,40.84315062499809,40.84315062499809,40.84315062499809,41.41036037499725,left,0.5642809170021792,None,left,0.5642809170021792,0.5,0,41.438146000000415,41.446171791998495,41.446171791998495,41.446171791998495,41.446171791998495,43.41946933299914,NA,NA,43.42012574999535,43.4202148330005,None,43.42031524999766,43.425455291995604,44.4191792079946,44.40878245799831,40.84315062499809,,,,33928,001,2025-10-22_14h41.18.164,regret_experiment,2024.2.4,None,0,0.5,0.7,0.2,2025-10-22 14h41.30.403010 -0700,
8,0,8,right,0.48481270800402854,None,None,8,0,8,0,44.4191792079946,,,,,,,,,44.40941762500006,44.4191792079946,0.004109666995645966,45.403498916995886,9,0,0.5,0.7,0.2,45.40424041699589,45.41031037499488,45.41031037499488,45.41031037499488,45.41031037499488,45.90420020799502,right,0.48481270800402854,None,right,0.48481270800402854,0.2,0,45.92833170799713,45.936176416995295,45.936176416995295,45.936176416995295,45.936176416995295,47.908977957995376,NA,NA,47.90958070799388,47.90966779199516,None,47.90979999999399,47.91909899999882,48.91017499999725,48.90369608299807,45.41031037499488,,,,33928,001,2025-10-22_14h41.18.164,regret_experiment,2024.2.4,None,0,0.5,0.7,0.2,2025-10-22 14h41.30.403010 -0700,
9,0,9,left,0.36062091599887935,None,None,9,0,9,0,48.91017499999725,,,,,,,,,48.90468433299975,48.91017499999725,0.0005239999954937957,49.90340204200038,10,0,0.5,0.7,0.2,49.90397949999897,49.91021387499495,49.91021387499495,49.91021387499495,49.91021387499495,50.277045749993704,left,0.36062091599887935,None,left,0.36062091599887935,0.5,1,50.30310612500034,50.31169924999995,50.31169924999995,50.31169924999995,50.31169924999995,52.28618299999653,NA,NA,52.28682358299557,52.28693304199987,None,52.287058166999486,52.29218545799813,53.29410208299669,53.28670104199409,49.91021387499495,,,,33928,001,2025-10-22_14h41.18.164,regret_experiment,2024.2.4,None,0,0.5,0.7,0.2,2025-10-22 14h41.30.403010 -0700,
10,0,10,up,0.4838789999994333,None,None,10,0,10,0,53.29410208299669,,,,,,,,,53.28774262499792,53.29410208299669,0.0007734169994364493,54.286010791998706,11,0,0.5,0.7,0.2,54.286380499994266,54.29117558299913,54.29117558299913,54.29117558299913,54.29117558299913,54.77758329199423,up,0.4838789999994333,None,up,0.4838789999994333,0.7,1,54.790878291998524,54.79811516699556,54.79811516699556,54.79811516699556,54.79811516699556,56.78610637499514,NA,NA,56.78646424999897,56.78649937499722,None,56.78654408299917,56.791236999997636,57.790992374997586,57.78577116700035,54.29117558299913,,,,33928,001,2025-10-22_14h41.18.164,regret_experiment,2024.2.4,None,0,0.5,0.7,0.2,2025-10-22 14h41.30.403010 -0700,
11,0,11,left,0.23037374999694293,None,None,11,0,11,0,57.790992374997586,,,,,,,,,57.78622333299427,57.790992374997586,-0.0002904170032707043,58.774593707996246,12,0,0.5,0.7,0.2,58.77489516700007,58.78531324999494,58.78531324999494,58.78531324999494,58.78531324999494,59.020711957993626,left,0.23037374999694293,None,left,0.23037374999694293,0.5,0,59.03368374999991,59.04024554199714,59.04024554199714,59.04024554199714,59.04024554199714,61.02455462499347,NA,NA,61.024970499995106,61.02501070799917,None,61.02506462499878,61.03575995799474,62.026091332998476,62.01991395799996,58.78531324999494,,,,33928,001,2025-10-22_14h41.18.164,regret_experiment,2024.2.4,None,0,0.5,0.7,0.2,2025-10-22 14h41.30.403010 -0700,
12,0,12,left,0.1900209579980583,None,None,12,0,12,0,62.026091332998476,,,,,,,,,62.02055112499511,62.026091332998476,0.0011451660029706545,63.0202302079997,13,0,0.5,0.7,0.2,63.020776666999154,63.02650116699806,63.02650116699806,63.02650116699806,63.02650116699806,63.2204658749979,left,0.1900209579980583,None,left,0.1900209579980583,0.5,1,63.245676874998026,63.254144916994846,63.254144916994846,63.254144916994846,63.254144916994846,65.2248392919937,NA,NA,65.2255528329988,65.22564020799473,None,65.22575037499337,65.23586299999442,66.22553495799366,66.22026833299606,63.02650116699806,,,,33928,001,2025-10-22_14h41.18.164,regret_experiment,2024.2.4,None,0,0.5,0.7,0.2,2025-10-22 14h41.30.403010 -0700,
13,0,13,up,0.23606724999990547,None,None,13,0,13,0,66.22553495799366,,,,,,,,,66.22060766699724,66.22553495799366,-5.837500066263601e-05,67.20927095799561,14,0,0.5,0.7,0.2,67.20987987499393,67.21930166699894,67.21930166699894,67.21930166699894,67.21930166699894,67.46248991699395,up,0.23606724999990547,None,up,0.23606724999990547,0.7,0,67.47682024999813,67.4858538749977,67.4858538749977,67.4858538749977,67.4858538749977,69.46995412499382,NA,NA,69.47065812499932,69.470725166997,None,69.47080737499346,69.47688879199995,70.47646199999872,70.47015279199695,67.21930166699894,,,,33928,001,2025-10-22_14h41.18.164,regret_experiment,2024.2.4,None,0,0.5,0.7,0.2,2025-10-22 14h41.30.403010 -0700,
14,0,14,up,0.5379347919952124,None,None,14,0,14,0,70.47646199999872,,,,,,,,,70.47060187500028,70.47646199999872,-0.00013908400433138013,71.47014091699384,15,0,0.5,0.7,0.2,71.47060820799379,71.47659991699766,71.47659991699766,71.47659991699766,71.47659991699766,72.02237787500053,up,0.5379347919952124,None,up,0.5379347919952124,0.7,1,72.03645999999571,72.04358524999407,72.04358524999407,72.04358524999407,72.04358524999407,74.02400458299962,NA,NA,74.02473704199656,74.02483808299439,None,74.02498558299703,74.0360010000004,75.02602900000056,75.01999437499762,71.47659991699766,,,,33928,001,2025-10-22_14h41.18.164,regret_experiment,2024.2.4,None,0,0.5,0.7,0.2,2025-10-22 14h41.30.403010 -0700,
15,0,15,up,0.24591770800179802,None,None,15,0,15,0,75.02602900000056,,,,,,,,,75.02075462499488,75.02602900000056,0.001201166000100784,76.01985766699363,16,0,0.5,0.7,0.2,76.02012904199364,76.02519145800034,76.02519145800034,76.02519145800034,76.02519145800034,76.27342529199814,up,0.24591770800179802,None,up,0.24591770800179802,0.7,1,76.28515524999966,76.29190212499816,76.29190212499816,76.29190212499816,76.29190212499816,78.27463524999621,NA,NA,78.2755702919967,78.27567545799684,None,78.27579891699861,78.28552520799713,79.27538345799985,79.26992474999861,76.02519145800034,,,,33928,001,2025-10-22_14h41.18.164,regret_experiment,2024.2.4,None,0,0.5,0.7,0.2,2025-10-22 14h41.30.403010 -0700,
16,0,16,left,0.23550404099660227,None,None,16,0,16,0,79.27538345799985,,,,,,,,,79.27069004199438,79.27538345799985,-0.0002756670000962913,80.26989666699956,17,0,0.5,0.7,0.2,80.27046958299616,80.27577174999897,80.27577174999897,80.27577174999897,80.27577174999897,80.52035945799435,left,0.23550404099660227,None,left,0.23550404099660227,0.5,0,80.53407383299782,80.54173841699958,80.54173841699958,80.54173841699958,80.54173841699958,82.52436358299747,NA,NA,82.52505770800053,82.52517966699816,None,82.52531474999705,82.5358638329999,83.5259078329982,83.52003170799435,80.27577174999897,,,,33928,001,2025-10-22_14h41.18.164,regret_experiment,2024.2.4,None,0,0.5,0.7,0.2,2025-10-22 14h41.30.403010 -0700,
17,0,17,left,0.27244591699854936,None,None,17,0,17,0,83.5259078329982,,,,,,,,,83.5209689580006,83.5259078329982,0.0007142079994082451,84.52031412499491,18,0,0.5,0.7,0.2,84.52080829199986,84.52620004199707,84.52620004199707,84.52620004199707,84.52620004199707,84.80532041699917,left,0.27244591699854936,None,left,0.27244591699854936,0.5,0,84.81814704199496,84.82503149999684,84.82503149999684,84.82503149999684,84.82503149999684,86.80867708299775,NA,NA,86.8093549999976,86.80939658299758,None,86.80944570800057,86.81970174999879,87.80992920800054,87.80348791699362,84.52620004199707,,,,33928,001,2025-10-22_14h41.18.164,regret_experiment,2024.2.4,None,0,0.5,0.7,0.2,2025-10-22 14h41.30.403010 -0700,
18,0,18,up,0.3892919579957379,None,None,18,0,18,0,87.80992920800054,,,,,,,,,87.80416466699535,87.80992920800054,0.0005923330027144402,88.8037744999965,19,0,0.5,0.7,0.2,88.80447037499835,88.81046912499733,88.81046912499733,88.81046912499733,88.81046912499733,89.20512458299345,up,0.3892919579957379,None,up,0.3892919579957379,0.7,0,89.23186433299998,89.24022387500008,89.24022387500008,89.24022387500008,89.24022387500008,91.20883370799856,NA,NA,91.20946541699959,91.2095557079956,None,91.20967024999845,91.21936449999339,92.20992845799628,92.20340854199458,88.81046912499733,,,,33928,001,2025-10-22_14h41.18.164,regret_experiment,2024.2.4,None,0,0.5,0.7,0.2,2025-10-22 14h41.30.403010 -0700,
19,0,19,up,1.3352604589963448,None,None,19,0,19,0,92.20992845799628,,,,,,,,,92.20417679199454,92.20992845799628,0.0003841660000034608,93.20306212499418,20,0,0.5,0.7,0.2,93.20342516699748,93.20851437499368,93.20851437499368,93.20851437499368,93.20851437499368,94.55491466699459,up,1.3352604589963448,None,up,1.3352604589963448,0.7,0,94.58134095800051,94.58917554199434,94.58917554199434,94.58917554199434,94.58917554199434,96.55896324999776,NA,NA,96.55972862499766,96.55984075000015,None,96.55999570799759,96.56931099999929,97.5593625420006,97.5532920419937,93.20851437499368,,,,33928,001,2025-10-22_14h41.18.164,regret_experiment,2024.2.4,None,0,0.5,0.7,0.2,2025-10-22 14h41.30.403010 -0700,
20,0,20,left,0.39635733400064055,None,None,20,0,20,0,97.5593625420006,,,,,,,,,97.55401595799776,97.5593625420006,-0.0004813750056200661,98.54247004199715,21,0,0.5,0.7,0.2,98.54301108299842,98.55838204199972,98.55838204199972,98.55838204199972,98.55838204199972,98.96095379199687,left,0.39635733400064055,None,left,0.39635733400064055,0.5,1,98.98851591699349,98.99693629199464,98.99693629199464,98.99693629199464,98.99693629199464,100.96973724999407,NA,NA,100.97038212500047,100.97045641699515,None,100.97055549999641,100.97569354199368,101.96867112499604,101.95908229199995,98.55262729199603,,,,33928,001,2025-10-22_14h41.18.164,regret_experiment,2024.2.4,None,0,0.5,0.7,0.2,2025-10-22 14h41.30.403010 -0700,
21,0,21,up,0.37490695800079266,None,None,21,0,21,0,101.96867112499604,,,,,,,,,101.96015674999944,101.96867112499604,0.0033523749953019433,102.95341991699388,22,0,0.5,0.7,0.2,102.95409616699908,102.96858387499378,102.96858387499378,102.96858387499378,102.96858387499378,103.35494970799482,up,0.37490695800079266,None,up,0.37490695800079266,0.7,1,103.3811818749964,103.39001074999396,103.39001074999396,103.39001074999396,103.39001074999396,105.35907608299749,NA,NA,105.35981512499711,105.35991512499459,None,105.36006374999852,105.36928445800004,106.36106304199348,106.35392191699793,102.95942287499929,,,,33928,001,2025-10-22_14h41.18.164,regret_experiment,2024.2.4,None,0,0.5,0.7,0.2,2025-10-22 14h41.30.403010 -0700,
22,0,22,up,0.36793362499884097,None,None,22,0,22,0,106.36106304199348,,,,,,,,,106.35494212499907,106.36106304199348,0.0011692920015775599,107.35342429199954,23,0,0.5,0.7,0.2,107.35398204199737,107.3597994169977,107.3597994169977,107.3597994169977,107.3597994169977,107.73745279199647,up,0.36793362499884097,None,up,0.36793362499884097,0.7,1,107.76330354200036,107.77195224999741,107.77195224999741,107.77195224999741,107.77195224999741,109.74211624999589,NA,NA,109.74271462499746,109.74281312499807,None,109.7429344169941,109.75263141699543,110.74364349999814,110.73709483299899,107.3597994169977,,,,33928,001,2025-10-22_14h41.18.164,regret_experiment,2024.2.4,None,0,0.5,0.7,0.2,2025-10-22 14h41.30.403010 -0700,
23,0,23,left,0.2869779999964521,None,None,23,0,23,0,110.74364349999814,,,,,,,,,110.73786254199513,110.74364349999814,0.0008397080018767156,111.73719591699773,24,0,0.5,0.7,0.2,111.73777191699628,111.74401083299745,111.74401083299745,111.74401083299745,111.74401083299745,112.03802516699943,left,0.2869779999964521,None,left,0.2869779999964521,0.5,0,112.06667474999995,112.07494154199958,112.07494154199958,112.07494154199958,112.07494154199958,114.04175679199398,NA,NA,114.04234541699407,114.04241833299602,None,114.04250445799698,114.05215841699828,115.04193295799632,115.03602770799625,111.74401083299745,,,,33928,001,2025-10-22_14h41.18.164,regret_experiment,2024.2.4,None,0,0.5,0.7,0.2,2025-10-22 14h41.30.403010 -0700,
24,0,24,left,0.3890974579990143,None,None,24,0,24,0,115.04193295799632,,,,,,,,,115.03700212499825,115.04193295799632,-0.00046529100654879585,116.03651487499883,25,0,0.5,0.7,0.2,116.03678254199622,116.0416222079948,116.0416222079948,116.0416222079948,116.0416222079948,116.43691395799397,left,0.3890974579990143,None,left,0.3890974579990143,0.5,0,116.4488040829965,116.45537383299961,116.45537383299961,116.45537383299961,116.45537383299961,118.4420804170004,NA,NA,118.44260045799456,118.4426308330003,None,118.44267324999964,118.4525351669945,119.44113499999366,119.43623674999981,116.0416222079948,,,,33928,001,2025-10-22_14h41.18.164,regret_experiment,2024.2.4,None,0,0.5,0.7,0.2,2025-10-22 14h41.30.403010 -0700,
25,0,25,up,1.4371701670024777,None,None,25,0,25,0,119.44113499999366,,,,,,,,,119.43664200000057,119.44113499999366,0.009803416003705934,120.4255942499949,26,0,0.5,0.7,0.2,120.42589745799341,120.43503549999878,120.43503549999878,120.43503549999878,120.43503549999878,121.87724341699504,up,1.4371701670024777,None,up,1.4371701670024777,0.7,1,121.90272616699804,121.91098233299999,121.91098233299999,121.91098233299999,121.91098233299999,123.8859760829946,NA,NA,123.88663299999462,123.88674429199455,None,123.88687712499814,123.89228858299612,124.88598354199348,124.87563108299946,120.43503549999878,,,,33928,001,2025-10-22_14h41.18.164,regret_experiment,2024.2.4,None,0,0.5,0.7,0.2,2025-10-22 14h41.30.403010 -0700,
26,0,26,right,0.8342667500037351,None,None,26,0,26,0,124.88598354199348,,,,,,,,,124.87640587499482,124.88598354199348,-0.0007646669982932508,125.87039108299359,27,0,0.5,0.7,0.2,125.87103466699773,125.87710695799615,125.87710695799615,125.87710695799615,125.87710695799615,126.7218114579955,right,0.8342667500037351,None,right,0.8342667500037351,0.2,0,126.75000641699444,126.75869349999994,126.75869349999994,126.75869349999994,126.75869349999994,128.725207083,NA,NA,128.72583662499528,128.7259113330001,None,128.72602262500004,128.7361240829996,129.72635470800014,129.72021762499935,125.87710695799615,,,,33928,001,2025-10-22_14h41.18.164,regret_experiment,2024.2.4,None,0,0.5,0.7,0.2,2025-10-22 14h41.30.403010 -0700,
27,0,27,up,0.9202383750016452,None,None,27,0,27,0,129.72635470800014,,,,,,,,,129.7209605829994,129.72635470800014,0.00046545900113414973,130.7204246669935,28,0,0.5,0.7,0.2,130.7213076669941,130.72783837499446,130.72783837499446,130.72783837499446,130.72783837499446,131.65474891699705,up,0.9202383750016452,None,up,0.9202383750016452,0.7,1,131.6805067919995,131.68883641699358,131.68883641699358,131.68883641699358,131.68883641699358,133.65896083299594,NA,NA,133.65969912499713,133.65979308299575,None,133.65991545799625,133.66933220799547,134.66021362500032,134.65331604200037,130.72783837499446,,,,33928,001,2025-10-22_14h41.18.164,regret_experiment,2024.2.4,None,0,0.5,0.7,0.2,2025-10-22 14h41.30.403010 -0700,
28,0,28,left,0.23621362500125542,None,None,28,0,28,0,134.66021362500032,,,,,,,,,134.65438295799686,134.66021362500032,0.0004272500009392388,135.65356937499746,29,0,0.5,0.7,0.2,135.65412424999522,135.66006420799386,135.66006420799386,135.66006420799386,135.66006420799386,135.90475620799407,left,0.23621362500125542,None,left,0.23621362500125542,0.5,1,135.9293442499984,135.93731083299645,135.93731083299645,135.93731083299645,135.93731083299645,137.9092871249959,NA,NA,137.9101437499994,137.91025774999434,None,137.91038562500034,137.91943462500058,138.9102183750001,138.90360795799643,135.66006420799386,,,,33928,001,2025-10-22_14h41.18.164,regret_experiment,2024.2.4,None,0,0.5,0.7,0.2,2025-10-22 14h41.30.403010 -0700,
29,0,29,up,0.312926583996159,None,None,29,0,29,0,138.9102183750001,,,,,,,,,138.90467954199994,138.9102183750001,-3.7582998629659414e-05,139.90372674999526,30,0,0.5,0.7,0.2,139.90426291699987,139.91003083299438,139.91003083299438,139.91003083299438,139.91003083299438,140.22727066699736,up,0.312926583996159,None,up,0.312926583996159,0.7,1,140.25225029199646,140.26043462499365,140.26043462499365,140.26043462499365,140.26043462499365,142.23644329200033,NA,NA,142.23701233299653,142.23708670799533,None,142.23718633299723,142.24222895799903,143.24389941699337,143.23688720799692,139.91003083299438,,,,33928,001,2025-10-22_14h41.18.164,regret_experiment,2024.2.4,None,0,0.5,0.7,0.2,2025-10-22 14h41.30.403010 -0700,
30,0,30,up,0.2600694580032723,None,None,30,0,30,0,143.24389941699337,,,,,,,,,143.2375488329999,143.24389941699337,0.0004350419985712506,144.23689316699893,31,0,0.5,0.7,0.2,144.23749999999563,144.24355933299375,144.24355933299375,144.24355933299375,144.24355933299375,144.5106344579981,up,0.2600694580032723,None,up,0.2600694580032723,0.7,0,144.5385627919968,144.54649133299972,144.54649133299972,144.54649133299972,144.54649133299972,146.51992604199768,NA,NA,146.52090783299354,146.5210012919997,None,146.52120058299624,146.52631341699453,147.52743066699622,147.52031520799937,144.24355933299375,,,,33928,001,2025-10-22_14h41.18.164,regret_experiment,2024.2.4,None,0,0.5,0.7,0.2,2025-10-22 14h41.30.403010 -0700,
31,0,31,up,0.4323084579955321,None,None,31,0,31,0,147.52743066699622,,,,,,,,,147.52118733299721,147.52743066699622,0.00010800000018207356,148.52038787499623,32,0,0.5,0.7,0.2,148.52100337499724,148.52736858299613,148.52736858299613,148.52736858299613,148.52736858299613,148.9717880419994,up,0.4323084579955321,None,up,0.4323084579955321,0.7,1,148.99816499999724,149.006854457999,149.006854457999,149.006854457999,149.006854457999,150.97504429199762,NA,NA,150.97572670799855,150.97584249999636,None,150.9760056249943,150.98593199999596,151.97722091699688,151.97042758299358,148.52736858299613,,,,33928,001,2025-10-22_14h41.18.164,regret_experiment,2024.2.4,None,0,0.5,0.7,0.2,2025-10-22 14h41.30.403010 -0700,
32,0,32,left,0.25570354200317524,None,None,32,0,32,0,151.97722091699688,,,,,,,,,151.9712185419994,151.97722091699688,0.00137104099849239,152.97005295800045,33,0,0.5,0.7,0.2,152.97068849999778,152.97548945799645,152.97548945799645,152.97548945799645,152.97548945799645,153.23691662499914,left,0.25570354200317524,None,left,0.25570354200317524,0.5,0,153.25030458299443,153.25679662499897,153.25679662499897,153.25679662499897,153.25679662499897,155.24270387499564,NA,NA,155.24318674999813,155.24321933299507,None,155.24326187499537,155.25281137499405,156.45808258299803,156.45174195799336,152.97548945799645,,,,33928,001,2025-10-22_14h41.18.164,regret_experiment,2024.2.4,None,0,0.5,0.7,0.2,2025-10-22 14h41.30.403010 -0700,
33,0,33,left,0.4035126249946188,None,None,33,0,33,0,156.45808258299803,,,,,,,,,156.45245949999662,156.45808258299803,0.20922887499909848,157.25288879199798,34,0,0.5,0.7,0.2,157.2534638329962,157.25948574999347,157.25948574999347,157.25948574999347,157.25948574999347,157.6705316669977,left,0.4035126249946188,None,left,0.4035126249946188,0.5,0,157.68344608299958,157.6905407919985,157.6905407919985,157.6905407919985,157.6905407919985,159.67350545799854,NA,NA,159.6738915829992,159.67395445799775,None,159.67403729199577,159.68586329199752,160.67536237499735,160.67034137500013,,,,,33928,001,2025-10-22_14h41.18.164,regret_experiment,2024.2.4,None,0,0.5,0.7,0.2,2025-10-22 14h41.30.403010 -0700,
34,0,34,up,0.41129962500417605,None,None,34,0,34,0,160.67536237499735,,,,,,,,,160.67072645799635,160.67536237499735,0.0015253749952535145,161.65840358299465,35,0,0.5,0.7,0.2,161.65897095800028,161.66924420799478,161.66924420799478,161.66924420799478,161.66924420799478,162.08835191699472,up,0.41129962500417605,None,up,0.41129962500417605,0.7,0,162.11639262499375,162.12518391699996,162.12518391699996,162.12518391699996,162.12518391699996,164.09229183299612,NA,NA,164.09308437499567,164.09319154200057,None,164.09333016699384,164.10282379199634,165.0931251669972,165.08683666699653,161.66924420799478,,,,33928,001,2025-10-22_14h41.18.164,regret_experiment,2024.2.4,None,0,0.5,0.7,0.2,2025-10-22 14h41.30.403010 -0700,
35,0,35,up,1.2098818750018836,None,None,35,0,35,0,165.0931251669972,,,,,,,,,165.08751841699996,165.0931251669972,-6.904199835844338e-05,166.08719883299636,36,0,0.5,0.7,0.2,166.0878234579941,166.0940174999996,166.0940174999996,166.0940174999996,166.0940174999996,167.3112176249997,up,1.2098818750018836,None,up,1.2098818750018836,0.7,0,167.33779679199506,167.34606058299687,167.34606058299687,167.34606058299687,167.34606058299687,169.31977741699666,NA,NA,169.32045924999693,169.3205508329993,None,169.32067999999708,169.32596045799437,170.3279040829948,170.3203990829934,166.0940174999996,,,,33928,001,2025-10-22_14h41.18.164,regret_experiment,2024.2.4,None,0,0.5,0.7,0.2,2025-10-22 14h41.30.403010 -0700,
36,0,36,up,0.5995160419988679,None,None,36,0,36,0,170.3279040829948,,,,,,,,,170.3212029169954,170.3279040829948,0.0006240829970920458,171.3204337499992,37,0,0.5,0.7,0.2,171.32109208299516,171.32760399999825,171.32760399999825,171.32760399999825,171.32760399999825,171.93837691699446,up,0.5995160419988679,None,up,0.5995160419988679,0.7,1,171.96731866699702,171.97539754199533,171.97539754199533,171.97539754199533,171.97539754199533,173.94177362499613,NA,NA,173.9423924579969,173.94247829199594,None,173.94257999999536,173.95298070799618,174.94408033299987,174.93710529199598,171.32760399999825,,,,33928,001,2025-10-22_14h41.18.164,regret_experiment,2024.2.4,None,0,0.5,0.7,0.2,2025-10-22 14h41.30.403010 -0700,
37,0,37,up,0.696873750006489,None,None,37,0,37,0,174.94408033299987,,,,,,,,,174.93802599999617,174.94408033299987,0.001624333999643568,175.93700341699878,38,0,0.5,0.7,0.2,175.93760587499855,175.94333629199537,175.94333629199537,175.94333629199537,175.94333629199537,176.6447402079939,up,0.696873750006489,None,up,0.696873750006489,0.7,1,176.6703424169973,176.6785748330003,176.6785748330003,176.6785748330003,176.6785748330003,178.6528643329948,NA,NA,178.65361841699632,178.65373720799835,None,178.65387237499817,178.6594563749968,179.6523892080004,179.64325241699407,175.94333629199537,,,,33928,001,2025-10-22_14h41.18.164,regret_experiment,2024.2.4,None,0,0.5,0.7,0.2,2025-10-22 14h41.30.403010 -0700,
38,0,38,up,0.795143667004595,None,None,38,0,38,0,179.6523892080004,,,,,,,,,179.64402691699797,179.6523892080004,0.0036442919954424724,180.6373089579938,39,0,0.5,0.7,0.2,180.6379599169959,180.64424812499783,180.64424812499783,180.64424812499783,180.64424812499783,181.44424062499456,up,0.795143667004595,None,up,0.795143667004595,0.7,1,181.46452674999455,181.47237116699398,181.47237116699398,181.47237116699398,181.47237116699398,183.45293766699615,NA,NA,183.45356341699517,183.4536831669975,None,183.45387408299575,183.45925579199684,184.46123908299342,184.45394320799824,180.64424812499783,,,,33928,001,2025-10-22_14h41.18.164,regret_experiment,2024.2.4,None,0,0.5,0.7,0.2,2025-10-22 14h41.30.403010 -0700,
39,0,39,left,0.46625516699714353,None,None,39,0,39,0,184.46123908299342,,,,,,,,,184.45477437499358,184.46123908299342,0.0010357080027461052,185.45394020799722,40,0,0.5,0.7,0.2,185.45450316699862,185.46076154199545,185.46076154199545,185.46076154199545,185.46076154199545,185.9387794169961,left,0.46625516699714353,None,left,0.46625516699714353,0.5,1,185.9690397919985,185.97741420799866,185.97741420799866,185.97741420799866,185.97741420799866,187.94230158299615,NA,NA,187.94304133299738,187.94315066699346,None,187.94329870799993,187.95236304199352,188.9441379169948,188.937210666998,185.46076154199545,,,,33928,001,2025-10-22_14h41.18.164,regret_experiment,2024.2.4,None,0,0.5,0.7,0.2,2025-10-22 14h41.30.403010 -0700,
40,0,40,up,0.8019419999982347,None,None,40,0,40,0,188.9441379169948,,,,,,,,,188.9381693749965,188.9441379169948,0.0009774579957593232,189.9363849999936,41,0,0.5,0.7,0.2,189.93670241699874,189.94148179199692,189.94148179199692,189.94148179199692,189.94148179199692,190.75377329199546,up,0.8019419999982347,None,up,0.8019419999982347,0.7,1,190.76507812499767,190.77163279199885,190.77163279199885,190.77163279199885,190.77163279199885,192.75740349999978,NA,NA,192.75784216699685,192.7578941669999,None,192.75794879199384,192.768718583,193.75691774999723,193.7518493749958,189.94148179199692,,,,33928,001,2025-10-22_14h41.18.164,regret_experiment,2024.2.4,None,0,0.5,0.7,0.2,2025-10-22 14h41.30.403010 -0700,
41,0,41,up,0.9586062090020278,None,None,41,0,41,0,193.75691774999723,,,,,,,,,193.752362291998,193.75691774999723,-0.000968457999988459,194.7421551669977,42,0,0.5,0.7,0.2,194.74241291699582,194.75258399999439,194.75258399999439,194.75258399999439,194.75258399999439,195.72081529199932,up,0.9586062090020278,None,up,0.9586062090020278,0.7,1,195.73921845799487,195.74630737499683,195.74630737499683,195.74630737499683,195.74630737499683,197.7252905829955,NA,NA,197.72594708299584,197.72602587499568,None,197.72615095799847,197.73615849999624,198.72790379199432,198.7209353750004,194.75258399999439,,,,33928,001,2025-10-22_14h41.18.164,regret_experiment,2024.2.4,None,0,0.5,0.7,0.2,2025-10-22 14h41.30.403010 -0700,
42,0,42,left,0.5441699590010103,None,None,42,0,42,0,198.72790379199432,,,,,,,,,198.72193212499405,198.72790379199432,0.0019056250021094456,199.720301207999,43,0,0.5,0.7,0.2,199.7209010000006,199.72703137499775,199.72703137499775,199.72703137499775,199.72703137499775,200.27780458299821,left,0.5441699590010103,None,left,0.5441699590010103,0.5,1,200.30355645799864,200.31187804199726,200.31187804199726,200.31187804199726,200.31187804199726,202.2865802919987,NA,NA,202.2872428749979,202.28735279199464,None,202.28747833299713,202.29276908299653,203.29512604199408,203.28733370799455,199.72703137499775,,,,33928,001,2025-10-22_14h41.18.164,regret_experiment,2024.2.4,None,0,0.5,0.7,0.2,2025-10-22 14h41.30.403010 -0700,
43,0,43,left,0.49769254199782154,None,None,43,0,43,0,203.29512604199408,,,,,,,,,203.28824650000024,203.29512604199408,0.0008634589976281859,204.28710466699704,44,0,0.5,0.7,0.2,204.28781108299881,204.29381629199634,204.29381629199634,204.29381629199634,204.29381629199634,204.79418887499924,left,0.49769254199782154,None,left,0.49769254199782154,0.5,1,204.81757308299711,204.82581854199816,204.82581854199816,204.82581854199816,204.82581854199816,206.8039843749939,NA,NA,206.80814579199796,206.80822158299998,None,206.80828737499542,206.8139699999956,207.8108418329939,207.8039139579996,204.29381629199634,,,,33928,001,2025-10-22_14h41.18.164,regret_experiment,2024.2.4,None,0,0.5,0.7,0.2,2025-10-22 14h41.30.403010 -0700,
44,0,44,up,0.33386433299892815,None,None,44,0,44,0,207.8108418329939,,,,,,,,,207.80498254199483,207.8108418329939,0.0026654169996618293,208.80399091699655,45,0,0.5,0.7,0.2,208.80459791699832,208.81084395799553,208.81084395799553,208.81084395799553,208.81084395799553,209.1552671249956,up,0.33386433299892815,None,up,0.33386433299892815,0.7,0,209.18364929199743,209.19226774999697,209.19226774999697,209.19226774999697,209.19226774999697,211.15884399999777,NA,NA,211.15955920799752,211.15964708299725,None,211.15974991699477,211.1695051669958,212.15872637499706,212.15270524999505,208.81084395799553,,,,33928,001,2025-10-22_14h41.18.164,regret_experiment,2024.2.4,None,0,0.5,0.7,0.2,2025-10-22 14h41.30.403010 -0700,
45,0,45,up,0.6784842920023948,None,None,45,0,45,0,212.15872637499706,,,,,,,,,212.15349845799938,212.15872637499706,-0.0009098750015255064,213.14276741699723,46,0,0.5,0.7,0.2,213.14326745799917,213.1527297499997,213.1527297499997,213.1527297499997,213.1527297499997,213.8386505419985,up,0.6784842920023948,None,up,0.6784842920023948,0.7,1,213.86506491699402,213.8735815830005,213.8735815830005,213.8735815830005,213.8735815830005,215.841974707997,NA,NA,215.84264883300057,215.84272158299427,None,215.84282987500046,215.85284058300022,216.84479387499596,216.8379622079956,213.1527297499997,,,,33928,001,2025-10-22_14h41.18.164,regret_experiment,2024.2.4,None,0,0.5,0.7,0.2,2025-10-22 14h41.30.403010 -0700,
46,0,46,up,0.2851660840024124,None,None,46,0,46,0,216.84479387499596,,,,,,,,,216.83881095799734,216.84479387499596,0.0021047909976914525,217.83668429200043,47,0,0.5,0.7,0.2,217.83726429200033,217.84206741699745,217.84206741699745,217.84206741699745,217.84206741699745,218.13816358299664,up,0.2851660840024124,None,up,0.2851660840024124,0.7,0,218.16810858299868,218.17615204199683,218.17615204199683,218.17615204199683,218.17615204199683,220.14078908299416,NA,NA,220.14162391699938,220.14167295799416,None,220.1417322079942,220.15261766699405,221.15273691699986,221.14040099999693,217.84206741699745,,,,33928,001,2025-10-22_14h41.18.164,regret_experiment,2024.2.4,None,0,0.5,0.7,0.2,2025-10-22 14h41.30.403010 -0700,
47,0,47,left,0.7221742090041516,None,None,47,0,47,0,221.15273691699986,,,,,,,,,221.14086645799398,221.15273691699986,-0.0008198750001611188,222.13640866700007,48,0,0.5,0.7,0.2,222.13667879199784,222.1414096669978,222.1414096669978,222.1414096669978,222.1414096669978,222.8705762919999,left,0.7221742090041516,None,left,0.7221742090041516,0.5,1,222.88185099999828,222.88914145799936,222.88914145799936,222.88914145799936,222.88914145799936,224.87521799999377,NA,NA,224.87587349999376,224.87596037500043,None,224.87606299999607,224.88636241699714,225.8762698329956,225.870220124998,222.1414096669978,,,,33928,001,2025-10-22_14h41.18.164,regret_experiment,2024.2.4,None,0,0.5,0.7,0.2,2025-10-22 14h41.30.403010 -0700,
48,0,48,left,0.35370654099824606,None,None,48,0,48,0,225.8762698329956,,,,,,,,,225.87088208299974,225.8762698329956,0.00032566699519520625,226.87067491699418,49,0,0.5,0.7,0.2,226.87130512499425,226.87753716699808,226.87753716699808,226.87753716699808,226.87753716699808,227.2383364999987,left,0.35370654099824606,None,left,0.35370654099824606,0.5,1,227.2634303329978,227.2716545000003,227.2716545000003,227.2716545000003,227.2716545000003,229.2421456669981,NA,NA,229.24295658299525,229.24304229199333,None,229.24315037499764,229.25286283299647,230.24391095799365,230.23712491699553,226.87753716699808,,,,33928,001,2025-10-22_14h41.18.164,regret_experiment,2024.2.4,None,0,0.5,0.7,0.2,2025-10-22 14h41.30.403010 -0700,
49,0,49,up,0.5008570420031901,None,None,49,0,49,0,230.24391095799365,,,,,,,,,230.23797812499834,230.24391095799365,0.0009042919991770759,231.23707699999795,50,0,0.5,0.7,0.2,231.2375815419946,231.24331033299677,231.24331033299677,231.24331033299677,231.24331033299677,231.75499812499766,up,0.5008570420031901,None,up,0.5008570420031901,0.7,1,231.78239137499622,231.79188974999852,231.79188974999852,231.79188974999852,231.79188974999852,233.7587782499977,NA,NA,233.75935858299636,233.75945974999922,None,233.7595790829946,233.76963874999637,234.76024270799826,234.75394224999764,231.24331033299677,,,,33928,001,2025-10-22_14h41.18.164,regret_experiment,2024.2.4,None,0,0.5,0.7,0.2,2025-10-22 14h41.30.403010 -0700,
50,0,50,left,0.383120083999529,None,None,50,0,50,0,234.76024270799826,,,,,,,,,234.754904292,234.76024270799826,0.0008024170019780286,235.75331949999963,51,0,0.5,0.7,0.2,235.75388070799818,235.75991516700014,235.75991516700014,235.75991516700014,235.75991516700014,236.15377291699406,left,0.383120083999529,None,left,0.383120083999529,0.5,0,236.16876283299644,236.1759067499952,236.1759067499952,236.1759067499952,236.1759067499952,238.15782454199507,NA,NA,238.15828783299366,238.15832987499743,None,238.15839454199886,238.17005412499566,239.16019408300053,239.1539276669937,235.75991516700014,,,,33928,001,2025-10-22_14h41.18.164,regret_experiment,2024.2.4,None,0,0.5,0.7,0.2,2025-10-22 14h41.30.403010 -0700,
51,0,51,up,0.7678585829999065,None,None,51,0,51,0,239.16019408300053,,,,,,,,,239.15486674999556,239.16019408300053,0.0019395420022192411,240.15341762499884,52,0,0.5,0.7,0.2,240.15372383299837,240.1591640829938,240.1591640829938,240.1591640829938,240.1591640829938,240.93871812499856,up,0.7678585829999065,None,up,0.7678585829999065,0.7,1,240.96328554199863,240.97137583299627,240.97137583299627,240.97137583299627,240.97137583299627,242.94195941699581,NA,NA,242.94262183299725,242.9427131669945,None,242.94283362499846,242.9521903329951,243.94206262499938,243.936836957997,240.1591640829938,,,,33928,001,2025-10-22_14h41.18.164,regret_experiment,2024.2.4,None,0,0.5,0.7,0.2,2025-10-22 14h41.30.403010 -0700,
52,0,52,left,0.3130435830025817,None,None,52,0,52,0,243.94206262499938,,,,,,,,,243.93748049999704,243.94206262499938,-0.0006564159994013608,244.9259060829936,53,0,0.5,0.7,0.2,244.92643570799555,244.9422801249966,244.9422801249966,244.9422801249966,244.9422801249966,245.26161799999682,left,0.3130435830025817,None,left,0.3130435830025817,0.5,1,245.27468762499484,245.28149166699586,245.28149166699586,245.28149166699586,245.28149166699586,247.26953662499727,NA,NA,247.26998695799557,247.27004104200023,None,247.27010266699654,247.27471637499548,248.26970720799727,248.25881204199686,244.93627316699713,,,,33928,001,2025-10-22_14h41.18.164,regret_experiment,2024.2.4,None,0,0.5,0.7,0.2,2025-10-22 14h41.30.403010 -0700,
53,0,53,left,0.67748583300272,None,None,53,0,53,0,248.26970720799727,,,,,,,,,248.25939104199642,248.26970720799727,-0.0002941249986179173,249.25381370799732,54,0,0.5,0.7,0.2,249.25439258299593,249.2603139999992,249.2603139999992,249.2603139999992,249.2603139999992,249.94446762499865,left,0.67748583300272,None,left,0.67748583300272,0.5,1,249.96916695799882,249.97717866699531,249.97717866699531,249.97717866699531,249.97717866699531,251.95294379199913,NA,NA,251.95349812499626,251.953585999996,None,251.95370562499738,251.95871020799677,252.95283962499525,252.9422429999977,249.2603139999992,,,,33928,001,2025-10-22_14h41.18.164,regret_experiment,2024.2.4,None,0,0.5,0.7,0.2,2025-10-22 14h41.30.403010 -0700,
54,0,54,up,0.43796833300439175,None,None,54,0,54,0,252.95283962499525,,,,,,,,,252.94287337499554,252.95283962499525,-0.0007547089990111999,253.94077537499834,55,0,0.5,0.7,0.2,253.9411880829939,253.95307079199847,253.95307079199847,253.95307079199847,253.95307079199847,254.39466399999947,up,0.43796833300439175,None,up,0.43796833300439175,0.7,1,254.41944774999865,254.4277889579971,254.4277889579971,254.4277889579971,254.4277889579971,256.4028857919984,NA,NA,256.4032717079972,256.40330658299354,None,256.40335283299646,256.40761570799805,257.4015954579954,257.39248770799895,253.95307079199847,,,,33928,001,2025-10-22_14h41.18.164,regret_experiment,2024.2.4,None,0,0.5,0.7,0.2,2025-10-22 14h41.30.403010 -0700,
55,0,55,up,0.31281624999974156,None,None,55,0,55,0,257.4015954579954,,,,,,,,,257.3929029169958,257.4015954579954,0.003582708006433677,258.3863213329969,56,0,0.5,0.7,0.2,258.38657620799495,258.3912695830004,258.3912695830004,258.3912695830004,258.3912695830004,258.7090107080003,up,0.31281624999974156,None,up,0.31281624999974156,0.7,1,258.7199962079976,258.72661395799514,258.72661395799514,258.72661395799514,258.72661395799514,260.71990504199493,NA,NA,260.72050208299333,260.7206062499972,None,260.7207086249982,260.7258919579981,261.7195615829987,261.70909687499807,258.3912695830004,,,,33928,001,2025-10-22_14h41.18.164,regret_experiment,2024.2.4,None,0,0.5,0.7,0.2,2025-10-22 14h41.30.403010 -0700,
56,0,56,up,0.5909381660021609,None,None,56,0,56,0,261.7195615829987,,,,,,,,,261.7098536669946,261.7195615829987,0.00405716599925654,262.7035764579996,57,0,0.5,0.7,0.2,262.70403166699543,262.71943104199454,262.71943104199454,262.71943104199454,262.71943104199454,263.3205253329943,up,0.5909381660021609,None,up,0.5909381660021609,0.7,1,263.33383204199345,263.3406396249993,263.3406396249993,263.3406396249993,263.3406396249993,265.3252618749975,NA,NA,265.3259612499969,265.32606029199815,None,265.32616329199664,265.3363559579957,266.3265521249996,266.32047520799824,262.7082940830005,,,,33928,001,2025-10-22_14h41.18.164,regret_experiment,2024.2.4,None,0,0.5,0.7,0.2,2025-10-22 14h41.30.403010 -0700,
57,0,57,left,0.27221287499560276,None,None,57,0,57,0,266.3265521249996,,,,,,,,,266.3211867919963,266.3265521249996,0.0005109580015414394,267.3105748749949,58,0,0.5,0.7,0.2,267.31113787499635,267.3193433329943,267.3193433329943,267.3193433329943,267.3193433329943,267.59425824999926,left,0.27221287499560276,None,left,0.27221287499560276,0.5,0,267.62270374999935,267.63060879199475,267.63060879199475,267.63060879199475,267.63060879199475,269.60324979199504,NA,NA,269.60384416699526,269.60391666699434,None,269.6040767079976,269.6091766249956,270.6029009999984,270.5925358749955,267.3193433329943,,,,33928,001,2025-10-22_14h41.18.164,regret_experiment,2024.2.4,None,0,0.5,0.7,0.2,2025-10-22 14h41.30.403010 -0700,
58,0,58,up,0.660720667001442,None,None,58,0,58,0,270.6029009999984,,,,,,,,,270.59338954199484,270.6029009999984,0.004649959002563264,271.5867385419988,59,0,0.5,0.7,0.2,271.58726662499976,271.6028659999938,271.6028659999938,271.6028659999938,271.6028659999938,272.2719404579984,up,0.660720667001442,None,up,0.660720667001442,0.7,1,272.2987890000004,272.307113291994,272.307113291994,272.307113291994,272.307113291994,274.3722172919952,NA,NA,274.372772499999,274.3728129999945,None,274.37286749999475,274.37694954199833,275.3769155829941,275.37046270800056,271.59204583300016,,,,33928,001,2025-10-22_14h41.18.164,regret_experiment,2024.2.4,None,0,0.5,0.7,0.2,2025-10-22 14h41.30.403010 -0700,
59,0,59,up,0.3659986670027138,None,None,59,0,59,0,275.3769155829941,,,,,,,,,275.37142666699947,275.3769155829941,0.004155125003308058,276.3708396669972,60,0,0.5,0.7,0.2,276.37154466699576,276.3775921669949,276.3775921669949,276.3775921669949,276.3775921669949,276.7554649169979,up,0.3659986670027138,None,up,0.3659986670027138,0.7,1,276.7820590419942,276.79072758300026,276.79072758300026,276.79072758300026,276.79072758300026,278.75841329199466,NA,NA,278.75910449999355,278.75918954199733,None,278.7592907079961,278.7698159579959,279.8091204999946,279.75377058299637,276.3775921669949,,,,33928,001,2025-10-22_14h41.18.164,regret_experiment,2024.2.4,None,0,0.5,0.7,0.2,2025-10-22 14h41.30.403010 -0700,
,,,,,,,,,,,,,,,,,,,,,,,,,,,,,,,,,,,,,,,,,,,,,,,,,,,,,,,,,,N/A,279.7979108329964,279.8091204999946,,,,,,,,,,,,
