thisN,thisTrialN,thisRepN,key_resp_1.keys,key_resp_1.rt,key_resp_1.duration,regret_key.keys,regret_key.rt,regret_key.duration,trials.thisRepN,trials.thisTrialN,trials.thisN,trials.thisIndex,thisRow.t,notes,begin_exp.started,begin.started,advance_key.started,begin_exp.stopped,advance_key.keys,advance_key.rt,advance_key.duration,Fixation.started,fixcross.started,etRecord.started,Fixation.stopped,trial_num,participant_cond,prob_left,prob_up,prob_right,Choice.started,tree1_img.started,tree2_img.started,tree3_img.started,key_resp_1.started,Choice.stopped,trials.key_resp_1.keys,trials.key_resp_1.rt,trials.key_resp_1.duration,choice_key,choice_rt,choice_prob,points,Feedback.started,appleImage.started,tree1.started,tree2.started,tree3.started,Feedback.stopped,regret_rating,regret_rt,RegretRating.started,RegretRating.stopped,trials.regret_key.keys,ITI.started,blank_screen.started,blank_screen.stopped,ITI.stopped,fixcross.stopped,regret_scale.started,regret_key.started,rtree1.started,rtree2.started,rtree3.started,trials.regret_key.rt,trials.regret_key.duration,avg_regret,EndScreen.started,end_display.started,participant,session,date,expName,psychopyVersion,frameRate,participant_cond,prob_left,prob_up,prob_right,expStart,
,,,,,,,,,,,,,,,0.05385183298494667,0.08330479200230911,0.08330479200230911,7.021616957965307,space,6.933731792028993,None,,,,,,2,0.7,0.5,0.2,,,,,,,,,,,,,,,,,,,,,,,,,,,,,,,,,,,,,,,,33955,001,2025-11-11_17h27.01.067,regret_experiment,2024.2.4,None,2,0.7,0.5,0.2,2025-11-11 17h27.17.923601 -0800,
0,0,0,right,2.6318895000149496,None,None,,,0,0,0,0,7.601137666963041,,,,,,,,,7.058597166964319,7.601137666963041,0.036943208950106055,8.030871832976118,1,2,0.7,0.5,0.2,8.031629582983442,8.045203082961962,8.045203082961962,8.045203082961962,8.045203082961962,10.683205750014167,right,2.6318895000149496,None,right,2.6318895000149496,0.2,0,10.714292499993462,10.727407832979225,10.727407832979225,10.727407832979225,10.727407832979225,12.686960541992448,NA,NA,12.687671749969013,12.687713541963603,None,12.687758207961451,12.698051541985478,13.687423541967291,13.68219045799924,,,,,,,,,,,,33955,001,2025-11-11_17h27.01.067,regret_experiment,2024.2.4,None,2,0.7,0.5,0.2,2025-11-11 17h27.17.923601 -0800,
1,0,1,up,0.5028440830064937,None,None,,,1,0,1,0,13.687423541967291,,,,,,,,,13.682762832962908,13.687423541967291,-0.0002157079870812595,14.670861749968026,2,2,0.7,0.5,0.2,14.67136074998416,14.681430917000398,14.681430917000398,14.681430917000398,14.681430917000398,15.18907808297081,up,0.5028440830064937,None,up,0.5028440830064937,0.5,1,15.202484417008236,15.212415000016335,15.212415000016335,15.212415000016335,15.212415000016335,17.199209666985553,NA,NA,17.19952183298301,17.19956016697688,None,17.199623416992836,17.20403670798987,18.198834707960486,18.187420499976724,14.681430917000398,,,,,,,,,,,33955,001,2025-11-11_17h27.01.067,regret_experiment,2024.2.4,None,2,0.7,0.5,0.2,2025-11-11 17h27.17.923601 -0800,
2,0,2,up,0.6563279169495218,None,None,,,2,0,2,0,18.198834707960486,,,,,,,,,18.18773850001162,18.198834707960486,-0.0006879579741507769,19.18221341696335,3,2,0.7,0.5,0.2,19.18290016701212,19.197937791992445,19.197937791992445,19.197937791992445,19.197937791992445,19.866612957965117,up,0.6563279169495218,None,up,0.6563279169495218,0.5,0,19.88404641696252,19.891169457987417,19.891169457987417,19.891169457987417,19.891169457987417,21.869235791964456,NA,NA,21.869834667013492,21.869870207970962,None,21.86994008300826,21.881110000016633,22.86958112497814,22.864916874968912,19.187529082992114,,,,,,,,,,,33955,001,2025-11-11_17h27.01.067,regret_experiment,2024.2.4,None,2,0.7,0.5,0.2,2025-11-11 17h27.17.923601 -0800,
3,0,3,left,0.4134157079970464,None,None,,,3,0,3,0,22.86958112497814,,,,,,,,,22.86528233299032,22.86958112497814,-0.0002423750120215118,23.853217208001297,4,2,0.7,0.5,0.2,23.853893666993827,23.864331207994837,23.864331207994837,23.864331207994837,23.864331207994837,24.28334874997381,left,0.4134157079970464,None,left,0.4134157079970464,0.7,1,24.299257458013017,24.308143333008047,24.308143333008047,24.308143333008047,24.308143333008047,26.285996166989207,NA,NA,26.286469166981988,26.28651299997,None,26.286587041977327,26.297677082999144,27.287372833001427,27.282139707996976,23.864331207994837,,,,,,,,,,,33955,001,2025-11-11_17h27.01.067,regret_experiment,2024.2.4,None,2,0.7,0.5,0.2,2025-11-11 17h27.17.923601 -0800,
4,0,4,right,0.3737489170162007,None,None,,,4,0,4,0,27.287372833001427,,,,,,,,,27.28276479197666,27.287372833001427,0.0008795830071903765,28.281694791978225,5,2,0.7,0.5,0.2,28.282197916996665,28.28706829197472,28.28706829197472,28.28706829197472,28.28706829197472,28.666430499986745,right,0.3737489170162007,None,right,0.3737489170162007,0.2,0,28.67913416697411,28.686458458018024,28.686458458018024,28.686458458018024,28.686458458018024,30.66913774999557,NA,NA,30.66970708296867,30.669739625009242,None,30.669792582979426,30.680858041974716,31.66900637501385,31.663980167009868,28.28706829197472,,,,,,,,,,,33955,001,2025-11-11_17h27.01.067,regret_experiment,2024.2.4,None,2,0.7,0.5,0.2,2025-11-11 17h27.17.923601 -0800,
5,0,5,up,0.4713229580083862,None,None,,,5,0,5,0,31.66900637501385,,,,,,,,,31.664688499993645,31.66900637501385,-0.0007081250078044832,32.65245270798914,6,2,0.7,0.5,0.2,32.6527384580113,32.669175582996104,32.669175582996104,32.669175582996104,32.669175582996104,33.14879037498031,up,0.4713229580083862,None,up,0.4713229580083862,0.5,0,33.16341066698078,33.1703165419749,33.1703165419749,33.1703165419749,33.1703165419749,35.15402554196771,NA,NA,35.1544119999744,35.15445274999365,None,35.15453804197023,35.164687957963906,36.15248912497191,36.14794154197443,32.664126249961555,,,,,,,,,,,33955,001,2025-11-11_17h27.01.067,regret_experiment,2024.2.4,None,2,0.7,0.5,0.2,2025-11-11 17h27.17.923601 -0800,
6,0,6,left,0.34884104202501476,None,None,,,6,0,6,0,36.15248912497191,,,,,,,,,36.148395791999064,36.15248912497191,0.010191167006269097,37.15455304196803,7,2,0.7,0.5,0.2,37.1548367079813,37.15961779200006,37.15961779200006,37.15961779200006,37.15961779200006,37.51551054196898,left,0.34884104202501476,None,left,0.34884104202501476,0.7,0,37.5276402499876,37.53424529201584,37.53424529201584,37.53424529201584,37.53424529201584,39.51926458301023,NA,NA,39.519629874965176,39.519671832968015,None,39.5197365420172,39.530461374961305,40.519137708004564,40.51410983299138,37.15961779200006,,,,,,,,,,,33955,001,2025-11-11_17h27.01.067,regret_experiment,2024.2.4,None,2,0.7,0.5,0.2,2025-11-11 17h27.17.923601 -0800,
7,0,7,left,0.31776624999474734,None,None,,,7,0,7,0,40.519137708004564,,,,,,,,,40.51456179196248,40.519137708004564,-0.00048579199938103557,41.50220054201782,8,2,0.7,0.5,0.2,41.5025222079712,41.51940545800608,41.51940545800608,41.51940545800608,41.51940545800608,41.83897945797071,left,0.31776624999474734,None,left,0.31776624999474734,0.7,1,41.85774233296979,41.867544375010766,41.867544375010766,41.867544375010766,41.867544375010766,43.84043441701215,NA,NA,43.84105891699437,43.841095832991414,None,43.84118512499845,43.84663108299719,44.838051291997544,44.83212699997239,41.513940542005,,,,,,,,,,,33955,001,2025-11-11_17h27.01.067,regret_experiment,2024.2.4,None,2,0.7,0.5,0.2,2025-11-11 17h27.17.923601 -0800,
8,0,8,left,0.3529260419891216,None,None,,,8,0,8,0,44.838051291997544,,,,,,,,,44.833389208011795,44.838051291997544,0.00588704104302451,45.83056283299811,9,2,0.7,0.5,0.2,45.83108791697305,45.835615332995076,45.835615332995076,45.835615332995076,45.835615332995076,46.20448558300268,left,0.3529260419891216,None,left,0.3529260419891216,0.7,1,46.21860687498702,46.22804816701682,46.22804816701682,46.22804816701682,46.22804816701682,48.213733582990244,NA,NA,48.214248374977615,48.21428229199955,None,48.21432787500089,48.22032941697398,49.21961108298274,49.21421320800437,45.835615332995076,,,,,,,,,,,33955,001,2025-11-11_17h27.01.067,regret_experiment,2024.2.4,None,2,0.7,0.5,0.2,2025-11-11 17h27.17.923601 -0800,
9,0,9,up,0.48711162502877414,None,None,,,9,0,9,0,49.21961108298274,,,,,,,,,49.21492837497499,49.21961108298274,0.0006351249758154154,50.202741457964294,10,2,0.7,0.5,0.2,50.20325058297021,50.21401412499836,50.21401412499836,50.21401412499836,50.21401412499836,50.70523124997271,up,0.48711162502877414,None,up,0.48711162502877414,0.5,1,50.71859233296709,50.72585720801726,50.72585720801726,50.72585720801726,50.72585720801726,52.713367874966934,NA,NA,52.71377737500006,52.713810957968235,None,52.71388258296065,52.71833483298542,53.71318741701543,53.70315625000512,50.21401412499836,,,,,,,,,,,33955,001,2025-11-11_17h27.01.067,regret_experiment,2024.2.4,None,2,0.7,0.5,0.2,2025-11-11 17h27.17.923601 -0800,
10,0,10,up,0.35157683299621567,None,None,,,10,0,10,0,53.71318741701543,,,,,,,,,53.70405291696079,53.71318741701543,-0.0006092499825172126,54.697442332981154,11,2,0.7,0.5,0.2,54.69824274996063,54.703254457970615,54.703254457970615,54.703254457970615,54.703254457970615,55.064790792006534,up,0.35157683299621567,None,up,0.35157683299621567,0.5,1,55.07727912499104,55.08492966700578,55.08492966700578,55.08492966700578,55.08492966700578,57.070998542010784,NA,NA,57.07154866697965,57.07159645797219,None,57.07165125000756,57.07994970801519,58.06910262501333,58.06437987496611,54.703254457970615,,,,,,,,,,,33955,001,2025-11-11_17h27.01.067,regret_experiment,2024.2.4,None,2,0.7,0.5,0.2,2025-11-11 17h27.17.923601 -0800,
11,0,11,right,0.34545570897171274,None,None,,,11,0,11,0,58.06910262501333,,,,,,,,,58.06471995799802,58.06910262501333,0.008133208961226046,59.06408937496599,12,2,0.7,0.5,0.2,59.06471133296145,59.06981087499298,59.06981087499298,59.06981087499298,59.06981087499298,59.41994362499099,right,0.34545570897171274,None,right,0.34545570897171274,0.2,0,59.43519637500867,59.44253674999345,59.44253674999345,59.44253674999345,59.44253674999345,61.4296594170155,NA,NA,61.43709887500154,61.437131624959875,None,61.437180583016016,61.44131500000367,62.43649670796003,62.431208916998,59.06981087499298,,,,,,,,,,,33955,001,2025-11-11_17h27.01.067,regret_experiment,2024.2.4,None,2,0.7,0.5,0.2,2025-11-11 17h27.17.923601 -0800,
12,0,12,left,0.6885273749940097,None,None,,,12,0,12,0,62.43649670796003,,,,,,,,,62.43185079196701,62.43649670796003,-0.0005935829831287265,63.43014054198284,13,2,0.7,0.5,0.2,63.43047816696344,63.435091249994,63.435091249994,63.435091249994,63.435091249994,64.1312835419667,left,0.6885273749940097,None,left,0.6885273749940097,0.7,1,64.14428837498417,64.15094166697236,64.15094166697236,64.15094166697236,64.15094166697236,66.13514787500026,NA,NA,66.13568333297735,66.1357162920176,None,66.1357647079858,66.14607799996156,67.1345622499939,67.12987224996323,63.435091249994,,,,,,,,,,,33955,001,2025-11-11_17h27.01.067,regret_experiment,2024.2.4,None,2,0.7,0.5,0.2,2025-11-11 17h27.17.923601 -0800,
13,0,13,left,0.38083270896459,None,None,,,13,0,13,0,67.1345622499939,,,,,,,,,67.1303912079893,67.1345622499939,0.01119708304759115,68.11789225001121,14,2,0.7,0.5,0.2,68.11824333301047,68.13474620797206,68.13474620797206,68.13474620797206,68.13474620797206,68.51956329197856,left,0.38083270896459,None,left,0.38083270896459,0.7,0,68.53241491696099,68.5391792919836,68.5391792919836,68.5391792919836,68.5391792919836,70.52936658298131,NA,NA,70.52988862496568,70.52992191701196,None,70.52997341699665,70.53411700000288,71.52919004199794,71.51826020801673,68.12940124998568,,,,,,,,,,,33955,001,2025-11-11_17h27.01.067,regret_experiment,2024.2.4,None,2,0.7,0.5,0.2,2025-11-11 17h27.17.923601 -0800,
14,0,14,up,0.4100643749698065,None,None,,,14,0,14,0,71.52919004199794,,,,,,,,,71.51873662497383,71.52919004199794,-0.0007265409803949296,72.51296312501654,15,2,0.7,0.5,0.2,72.51341345801484,72.52923225000268,72.52923225000268,72.52923225000268,72.52923225000268,72.95133970800089,up,0.4100643749698065,None,up,0.4100643749698065,0.5,0,72.96363208297407,72.97059508296661,72.97059508296661,72.97059508296661,72.97059508296661,74.96253254200565,NA,NA,74.963133207988,74.96316987497266,None,74.96322949999012,74.96734458301216,75.97230162500637,75.96643991698511,72.51735116698546,,,,,,,,,,,33955,001,2025-11-11_17h27.01.067,regret_experiment,2024.2.4,None,2,0.7,0.5,0.2,2025-11-11 17h27.17.923601 -0800,
15,0,15,up,0.04662108299089596,None,None,,,15,0,15,0,75.97230162500637,,,,,,,,,75.96729120798409,75.97230162500637,0.004133292008191347,76.96289654198335,16,2,0.7,0.5,0.2,76.96327383298194,76.96782887500012,76.96782887500012,76.96782887500012,76.96782887500012,77.01894912496209,up,0.04662108299089596,None,up,0.04662108299089596,0.5,0,77.0309905000031,77.03805370797636,77.03805370797636,77.03805370797636,77.03805370797636,79.0292431669659,NA,NA,79.02988304197788,79.02997124998365,None,79.03009891696274,79.03543204197194,80.03465233300813,80.0296042499831,76.96782887500012,,,,,,,,,,,33955,001,2025-11-11_17h27.01.067,regret_experiment,2024.2.4,None,2,0.7,0.5,0.2,2025-11-11 17h27.17.923601 -0800,
16,0,16,up,0.3198577919974923,None,None,,,16,0,16,0,80.03465233300813,,,,,,,,,80.02999470796203,80.03465233300813,-4.63749747723341e-05,81.02916487498442,17,2,0.7,0.5,0.2,81.0296985830064,81.03472220798722,81.03472220798722,81.03472220798722,81.03472220798722,81.36336229200242,up,0.3198577919974923,None,up,0.3198577919974923,0.5,1,81.37539549998473,81.38195149996318,81.38195149996318,81.38195149996318,81.38195149996318,83.36693249997916,NA,NA,83.36745362496004,83.36749299999792,None,83.36753470799886,83.37876499997219,84.36724612500984,84.36268954200204,81.03472220798722,,,,,,,,,,,33955,001,2025-11-11_17h27.01.067,regret_experiment,2024.2.4,None,2,0.7,0.5,0.2,2025-11-11 17h27.17.923601 -0800,
17,0,17,left,0.41897887497907504,None,None,,,17,0,17,0,84.36724612500984,,,,,,,,,84.36304366699187,84.36724612500984,-0.0002311250427737832,85.3627073749667,18,2,0.7,0.5,0.2,85.36312137497589,85.36793779197615,85.36793779197615,85.36793779197615,85.36793779197615,85.79703179199714,left,0.41897887497907504,None,left,0.41897887497907504,0.7,1,85.80912779201753,85.81603162497049,85.81603162497049,85.81603162497049,85.81603162497049,87.80047041701619,NA,NA,87.80099112499738,87.8010282079922,None,87.80106974998489,87.81186837499263,88.80071870796382,88.79598387499573,85.36793779197615,,,,,,,,,,,33955,001,2025-11-11_17h27.01.067,regret_experiment,2024.2.4,None,2,0.7,0.5,0.2,2025-11-11 17h27.17.923601 -0800,
18,0,18,up,0.46282412501750514,None,None,,,18,0,18,0,88.80071870796382,,,,,,,,,88.79632545798086,88.80071870796382,-0.0002210419625043869,89.78535224997904,19,2,0.7,0.5,0.2,89.78562833298929,89.79519350000191,89.79519350000191,89.79519350000191,89.79519350000191,90.26374995801598,up,0.46282412501750514,None,up,0.46282412501750514,0.5,0,90.2794727080036,90.28617608296918,90.28617608296918,90.28617608296918,90.28617608296918,92.26635024999268,NA,NA,92.26705254201079,92.26707999996142,None,92.26713045797078,92.27844779199222,93.26635950000491,93.2616132919793,89.79519350000191,,,,,,,,,,,33955,001,2025-11-11_17h27.01.067,regret_experiment,2024.2.4,None,2,0.7,0.5,0.2,2025-11-11 17h27.17.923601 -0800,
19,0,19,left,0.29231083299964666,None,None,,,19,0,19,0,93.26635950000491,,,,,,,,,93.26204633299494,93.26635950000491,-0.0006959579768590629,94.25005958299153,20,2,0.7,0.5,0.2,94.25034575001337,94.26179237500764,94.26179237500764,94.26179237500764,94.26179237500764,94.56354341696715,left,0.29231083299964666,None,left,0.29231083299964666,0.7,0,94.57626274996437,94.58300812501693,94.58300812501693,94.58300812501693,94.58300812501693,96.56622633297229,NA,NA,96.56674358301098,96.56677733297693,None,96.56681920797564,96.5781864579767,97.56695945799584,97.56211816699943,94.26179237500764,,,,,,,,,,,33955,001,2025-11-11_17h27.01.067,regret_experiment,2024.2.4,None,2,0.7,0.5,0.2,2025-11-11 17h27.17.923601 -0800,
20,0,20,left,0.40250145900063217,None,None,,,20,0,20,0,97.56695945799584,,,,,,,,,97.56280791701283,97.56695945799584,0.00019445904763415456,98.55032583296997,21,2,0.7,0.5,0.2,98.55075795797165,98.56164500000887,98.56164500000887,98.56164500000887,98.56164500000887,98.96803508297307,left,0.40250145900063217,None,left,0.40250145900063217,0.7,0,98.98019074997865,98.98724745796062,98.98724745796062,98.98724745796062,98.98724745796062,100.96850170800462,NA,NA,100.96971812500851,100.96978549996857,None,100.96997633296996,100.97830316697946,101.96732391696423,101.96183170797303,98.56164500000887,,,,,,,,,,,33955,001,2025-11-11_17h27.01.067,regret_experiment,2024.2.4,None,2,0.7,0.5,0.2,2025-11-11 17h27.17.923601 -0800,
21,0,21,left,0.47337033395888284,None,None,,,21,0,21,0,101.96732391696423,,,,,,,,,101.96261474996572,101.96732391696423,0.008303584007080644,102.96280749997823,22,2,0.7,0.5,0.2,102.963110917015,102.96878020797158,102.96878020797158,102.96878020797158,102.96878020797158,103.4481222499744,left,0.47337033395888284,None,left,0.47337033395888284,0.7,1,103.46868970798096,103.4785269999993,103.4785269999993,103.4785269999993,103.4785269999993,105.45064337499207,NA,NA,105.45123629196314,105.45127941697137,None,105.45137470797636,105.46228787500877,106.46114458300872,106.45027029199991,102.96878020797158,,,,,,,,,,,33955,001,2025-11-11_17h27.01.067,regret_experiment,2024.2.4,None,2,0.7,0.5,0.2,2025-11-11 17h27.17.923601 -0800,
22,0,22,left,0.4973381669842638,None,None,,,22,0,22,0,106.46114458300872,,,,,,,,,106.45067670801654,106.46114458300872,-0.0006423330050893128,107.45197108300636,23,2,0.7,0.5,0.2,107.45229270798154,107.4569069580175,107.4569069580175,107.4569069580175,107.4569069580175,107.96706441696733,left,0.4973381669842638,None,left,0.4973381669842638,0.7,0,107.97968641697662,107.98736558301607,107.98736558301607,107.98736558301607,107.98736558301607,109.97865191701567,NA,NA,109.9792510829866,109.97936637501698,None,109.97948879201431,109.98455808300059,110.98762429197086,110.98001720797038,107.4569069580175,,,,,,,,,,,33955,001,2025-11-11_17h27.01.067,regret_experiment,2024.2.4,None,2,0.7,0.5,0.2,2025-11-11 17h27.17.923601 -0800,
23,0,23,right,0.41738858399912715,None,None,,,23,0,23,0,110.98762429197086,,,,,,,,,110.98048270796426,110.98762429197086,0.0010552079766057432,111.97849133296404,24,2,0.7,0.5,0.2,111.97959666699171,111.98459087498486,111.98459087498486,111.98459087498486,111.98459087498486,112.41299474996049,right,0.41738858399912715,None,right,0.41738858399912715,0.2,0,112.42733408301137,112.43562645796919,112.43562645796919,112.43562645796919,112.43562645796919,114.41566766699543,NA,NA,114.41636466700584,114.41639833297813,None,114.4164550419664,114.42752020800253,115.41710554197198,115.41220795799745,111.98459087498486,,,,,,,,,,,33955,001,2025-11-11_17h27.01.067,regret_experiment,2024.2.4,None,2,0.7,0.5,0.2,2025-11-11 17h27.17.923601 -0800,
24,0,24,right,0.3114827920217067,None,None,,,24,0,24,0,115.41710554197198,,,,,,,,,115.41253849997884,115.41710554197198,0.0007380000315606594,116.41143574996386,25,2,0.7,0.5,0.2,116.41182808298618,116.41831145796459,116.41831145796459,116.41831145796459,116.41831145796459,116.73122299998067,right,0.3114827920217067,None,right,0.3114827920217067,0.2,0,116.74509512499208,116.75168579199817,116.75168579199817,116.75168579199817,116.75168579199817,118.73228120798012,NA,NA,118.73283100000117,118.73286991700297,None,118.73295358300675,118.74401012499584,119.7317454579752,119.72716212499654,116.41831145796459,,,,,,,,,,,33955,001,2025-11-11_17h27.01.067,regret_experiment,2024.2.4,None,2,0.7,0.5,0.2,2025-11-11 17h27.17.923601 -0800,
25,0,25,right,0.2903391669970006,None,None,,,25,0,25,0,119.7317454579752,,,,,,,,,119.72751354199136,119.7317454579752,0.01104491698788479,120.71614154201234,26,2,0.7,0.5,0.2,120.71635829197476,120.72731862496585,120.72731862496585,120.72731862496585,120.72731862496585,121.02836387499701,right,0.2903391669970006,None,right,0.2903391669970006,0.2,0,121.04195837496081,121.0488528329879,121.0488528329879,121.0488528329879,121.0488528329879,123.03206133301137,NA,NA,123.03261466696858,123.03265070798807,None,123.03269762499258,123.04383887496078,124.03223249997245,124.02751304197591,120.72731862496585,,,,,,,,,,,33955,001,2025-11-11_17h27.01.067,regret_experiment,2024.2.4,None,2,0.7,0.5,0.2,2025-11-11 17h27.17.923601 -0800,
26,0,26,right,0.7308392080012709,None,None,,,26,0,26,0,124.03223249997245,,,,,,,,,124.02816112496657,124.03223249997245,-0.00040499999886378646,125.0153471250087,27,2,0.7,0.5,0.2,125.01584537496092,125.0313871249673,125.0313871249673,125.0313871249673,125.0313871249673,125.76739258301677,right,0.7308392080012709,None,right,0.7308392080012709,0.2,0,125.78111691697268,125.78771120798774,125.78771120798774,125.78771120798774,125.78771120798774,127.77703312499216,NA,NA,127.77813587500714,127.7781681669876,None,127.77821216697339,127.78211720800027,128.7770001249737,128.76509208296193,125.02629804197932,,,,,,,,,,,33955,001,2025-11-11_17h27.01.067,regret_experiment,2024.2.4,None,2,0.7,0.5,0.2,2025-11-11 17h27.17.923601 -0800,
27,0,27,up,0.3040633749915287,None,None,,,27,0,27,0,128.7770001249737,,,,,,,,,128.76552129199263,128.7770001249737,0.003420832974370569,129.76088954199804,28,2,0.7,0.5,0.2,129.76126925001154,129.77692016697256,129.77692016697256,129.77692016697256,129.77692016697256,130.08448208298068,up,0.3040633749915287,None,up,0.3040633749915287,0.5,0,130.0966671250062,130.10677241696976,130.10677241696976,130.10677241696976,130.10677241696976,132.09358129196335,NA,NA,132.09416858298937,132.09420241700718,None,132.09425487497356,132.09854858298786,133.09933904197533,133.09385708300397,129.7651256250101,,,,,,,,,,,33955,001,2025-11-11_17h27.01.067,regret_experiment,2024.2.4,None,2,0.7,0.5,0.2,2025-11-11 17h27.17.923601 -0800,
28,0,28,up,0.30893845797982067,None,None,,,28,0,28,0,133.09933904197533,,,,,,,,,133.09441354201408,133.09933904197533,0.00020304200006648898,134.0979232499958,29,2,0.7,0.5,0.2,134.09818766696844,134.10290549998172,134.10290549998172,134.10290549998172,134.10290549998172,134.41883108299226,up,0.30893845797982067,None,up,0.30893845797982067,0.5,1,134.43077716697007,134.437265207991,134.437265207991,134.437265207991,134.437265207991,136.42672099999618,NA,NA,136.42734341701725,136.42737637500977,None,136.4274243330001,136.43787974998122,137.43228979199193,137.42732229200192,134.10290549998172,,,,,,,,,,,33955,001,2025-11-11_17h27.01.067,regret_experiment,2024.2.4,None,2,0.7,0.5,0.2,2025-11-11 17h27.17.923601 -0800,
29,0,29,up,0.3696815840085037,None,None,,,29,0,29,0,137.43228979199193,,,,,,,,,137.42765008297283,137.43228979199193,0.00025666598230600357,138.41625658300472,30,2,0.7,0.5,0.2,138.41658429196104,138.4265979169868,138.4265979169868,138.4265979169868,138.4265979169868,138.7997771250084,up,0.3696815840085037,None,up,0.3696815840085037,0.5,1,138.8133196249837,138.82046104199253,138.82046104199253,138.82046104199253,138.82046104199253,140.80984104197705,NA,NA,140.8159237499931,140.81603108299896,None,140.81615995796164,140.8212334169657,141.81500345800305,141.81039029196836,138.4265979169868,,,,,,,,,,,33955,001,2025-11-11_17h27.01.067,regret_experiment,2024.2.4,None,2,0.7,0.5,0.2,2025-11-11 17h27.17.923601 -0800,
30,0,30,up,0.40838629100471735,None,None,,,30,0,30,0,141.81500345800305,,,,,,,,,141.81087654200383,141.81500345800305,0.010271499981172383,142.81038912496297,31,2,0.7,0.5,0.2,142.81086933298502,142.81553737499053,142.81553737499053,142.81553737499053,142.81553737499053,143.22926745796576,up,0.40838629100471735,None,up,0.40838629100471735,0.5,1,143.241104332963,143.24763900000835,143.24763900000835,143.24763900000835,143.24763900000835,145.23104537499603,NA,NA,145.23157408297993,145.23161391698522,None,145.23166337498697,145.24294733296847,146.23184475000016,146.22713333298452,142.81553737499053,,,,,,,,,,,33955,001,2025-11-11_17h27.01.067,regret_experiment,2024.2.4,None,2,0.7,0.5,0.2,2025-11-11 17h27.17.923601 -0800,
31,0,31,up,0.37962679198244587,None,3,4.76313737500459,None,31,0,31,0,146.23184475000016,,,,,,,,,146.22754495800473,146.23184475000016,0.00024737499188631773,147.22718229197199,32,2,0.7,0.5,0.2,147.227432457963,147.23204525001347,147.23204525001347,147.23204525001347,147.23204525001347,147.61581704200944,up,0.37962679198244587,None,up,0.37962679198244587,0.5,0,147.62870274996385,147.63524091697764,147.63524091697764,147.63524091697764,147.63524091697764,149.62711062497692,3,4.76313737500459,149.63473037496442,154.41647024999838,3,154.41658995801117,154.5475818749983,,155.4252037499682,147.23204525001347,149.64820854197023,149.64820854197023,149.64820854197023,149.64820854197023,149.64820854197023,4.76313737500459,None,,,,33955,001,2025-11-11_17h27.01.067,regret_experiment,2024.2.4,None,2,0.7,0.5,0.2,2025-11-11 17h27.17.923601 -0800,
32,0,32,left,0.654116082994733,None,None,,,32,0,32,0,155.43120829196414,,,,,,,,,155.42633954196936,155.43120829196414,0.009808750008232892,156.4164333330118,33,2,0.7,0.5,0.2,156.41671712498646,156.4259857920115,156.4259857920115,156.4259857920115,156.4259857920115,157.08303237496875,left,0.654116082994733,None,left,0.654116082994733,0.7,1,157.09649283299223,157.1051313749631,157.1051313749631,157.1051313749631,157.1051313749631,159.0924259169842,NA,NA,159.09278083301615,159.09281754196854,None,159.092869916989,159.09698774997378,160.09233216696884,160.08287949999794,156.4259857920115,,,,,,,,,,,33955,001,2025-11-11_17h27.01.067,regret_experiment,2024.2.4,None,2,0.7,0.5,0.2,2025-11-11 17h27.17.923601 -0800,
33,0,33,left,0.3335957090021111,None,None,,,33,0,33,0,160.09233216696884,,,,,,,,,160.08335737499874,160.09233216696884,-0.0004712080117315054,161.07641708297888,34,2,0.7,0.5,0.2,161.07672974996967,161.0825913749868,161.0825913749868,161.0825913749868,161.0825913749868,161.4280801669811,left,0.3335957090021111,None,left,0.3335957090021111,0.7,1,161.43992362497374,161.44699033297366,161.44699033297366,161.44699033297366,161.44699033297366,163.4301523329923,NA,NA,163.43078920798143,163.43082716700155,None,163.4308860829915,163.44219583296217,164.43083804199705,164.42610716697527,161.0825913749868,,,,,,,,,,,33955,001,2025-11-11_17h27.01.067,regret_experiment,2024.2.4,None,2,0.7,0.5,0.2,2025-11-11 17h27.17.923601 -0800,
34,0,34,left,0.44005899998592213,None,None,,,34,0,34,0,164.43083804199705,,,,,,,,,164.42651508300332,164.43083804199705,2.133304951712489e-05,165.42609008296859,35,2,0.7,0.5,0.2,165.4265725829755,165.4314047920052,165.4314047920052,165.4314047920052,165.4314047920052,165.87761470797705,left,0.44005899998592213,None,left,0.44005899998592213,0.7,1,165.89321845798986,165.90045274997829,165.90045274997829,165.90045274997829,165.90045274997829,167.88027224998223,NA,NA,167.88064791698707,167.88069216697477,None,167.88075516698882,167.8920144579606,168.88337233301718,168.87599716696423,165.4314047920052,,,,,,,,,,,33955,001,2025-11-11_17h27.01.067,regret_experiment,2024.2.4,None,2,0.7,0.5,0.2,2025-11-11 17h27.17.923601 -0800,
35,0,35,left,0.3707839160342701,None,None,,,35,0,35,0,168.88337233301718,,,,,,,,,168.87676041701343,168.88337233301718,0.002734125009737909,169.87565762497252,36,2,0.7,0.5,0.2,169.8796537920134,169.88581349997548,169.88581349997548,169.88581349997548,169.88581349997548,170.26183016697178,left,0.3707839160342701,None,left,0.3707839160342701,0.7,1,170.2763321250095,170.28504074999364,170.28504074999364,170.28504074999364,170.28504074999364,172.2640731249703,NA,NA,172.26492495799903,172.26496891700663,None,172.26506841700757,172.27519833296537,173.26464666699758,173.2594792919699,169.88581349997548,,,,,,,,,,,33955,001,2025-11-11_17h27.01.067,regret_experiment,2024.2.4,None,2,0.7,0.5,0.2,2025-11-11 17h27.17.923601 -0800,
36,0,36,left,0.3962949580163695,None,None,,,36,0,36,0,173.26464666699758,,,,,,,,,173.26000020798529,173.26464666699758,-0.0003012500237673521,174.25944504200015,37,2,0.7,0.5,0.2,174.2601056669955,174.26680124999257,174.26680124999257,174.26680124999257,174.26680124999257,174.6651883329614,left,0.3962949580163695,None,left,0.3962949580163695,0.7,1,174.67727595800534,174.684529457998,174.684529457998,174.684529457998,174.684529457998,176.67505987500772,NA,NA,176.6756951250136,176.67572762497002,None,176.67577008297667,176.67972149996785,177.67414862499572,177.66304812498856,174.26680124999257,,,,,,,,,,,33955,001,2025-11-11_17h27.01.067,regret_experiment,2024.2.4,None,2,0.7,0.5,0.2,2025-11-11 17h27.17.923601 -0800,
37,0,37,left,0.3836121250060387,None,None,,,37,0,37,0,177.67414862499572,,,,,,,,,177.6635040830006,177.67414862499572,0.0033447089954279363,178.65868154197233,38,2,0.7,0.5,0.2,178.65917929197894,178.66382099996554,178.66382099996554,178.66382099996554,178.66382099996554,179.05934862501454,left,0.3836121250060387,None,left,0.3836121250060387,0.7,1,179.07145470799878,179.07811883301474,179.07811883301474,179.07811883301474,179.07811883301474,181.06290383299347,NA,NA,181.06320604198845,181.06324745796155,None,181.0633149999776,181.07482545799576,182.06329354201443,182.05851204198552,178.66382099996554,,,,,,,,,,,33955,001,2025-11-11_17h27.01.067,regret_experiment,2024.2.4,None,2,0.7,0.5,0.2,2025-11-11 17h27.17.923601 -0800,
38,0,38,left,0.5427823750069365,None,None,,,38,0,38,0,182.06329354201443,,,,,,,,,182.05906837497605,182.06329354201443,4.941702354699373e-05,183.04990491701756,39,2,0.7,0.5,0.2,183.05086983297952,183.05831337498967,183.05831337498967,183.05831337498967,183.05831337498967,183.61588691698853,left,0.5427823750069365,None,left,0.5427823750069365,0.7,1,183.6334429999697,183.64415287500015,183.64415287500015,183.64415287500015,183.64415287500015,185.6253516249708,NA,NA,185.6258810000145,185.62592224997934,None,185.6260029579862,185.63015687500592,186.63073279196396,186.6253995000152,183.05831337498967,,,,,,,,,,,33955,001,2025-11-11_17h27.01.067,regret_experiment,2024.2.4,None,2,0.7,0.5,0.2,2025-11-11 17h27.17.923601 -0800,
39,0,39,left,0.4540114999981597,None,None,,,39,0,39,0,186.63073279196396,,,,,,,,,186.62577304197475,186.63073279196396,-0.00017691700486466289,187.61465187498834,40,2,0.7,0.5,0.2,187.61490804201458,187.62454729201272,187.62454729201272,187.62454729201272,187.62454729201272,188.0831654999638,left,0.4540114999981597,None,left,0.4540114999981597,0.7,1,188.09468579199165,188.1011073749978,188.1011073749978,188.1011073749978,188.1011073749978,190.09119966696016,NA,NA,190.09200354199857,190.09203979198355,None,190.09208929201122,190.09607500000857,191.09118537500035,191.0800756670069,187.62454729201272,,,,,,,,,,,33955,001,2025-11-11_17h27.01.067,regret_experiment,2024.2.4,None,2,0.7,0.5,0.2,2025-11-11 17h27.17.923601 -0800,
40,0,40,left,0.3226277909707278,None,None,,,40,0,40,0,191.09118537500035,,,,,,,,,191.0804887500126,191.09118537500035,-0.0008436660282313824,192.07483558298554,41,2,0.7,0.5,0.2,192.07511562498985,192.09182895801496,192.09182895801496,192.09182895801496,192.09182895801496,192.42555279197404,left,0.3226277909707278,None,left,0.3226277909707278,0.7,1,192.43995270796586,192.4467884170008,192.4467884170008,192.4467884170008,192.4467884170008,194.4307313329773,NA,NA,194.43126758298604,194.4313073749654,None,194.43135058297776,194.4409717079834,195.43715116701787,195.43180587497773,192.07917199999793,,,,,,,,,,,33955,001,2025-11-11_17h27.01.067,regret_experiment,2024.2.4,None,2,0.7,0.5,0.2,2025-11-11 17h27.17.923601 -0800,
41,0,41,left,0.39262374996906146,None,None,,,41,0,41,0,195.43715116701787,,,,,,,,,195.43233366700588,195.43715116701787,0.001016041962429881,196.42458012496354,42,2,0.7,0.5,0.2,196.4250653749914,196.42974012496416,196.42974012496416,196.42974012496416,196.42974012496416,196.82620924996445,left,0.39262374996906146,None,left,0.39262374996906146,0.7,1,196.84112399996957,196.84842374996515,196.84842374996515,196.84842374996515,196.84842374996515,198.82928549998906,NA,NA,198.82981920801103,198.8298524999991,None,198.82989491696935,198.84076820797054,199.8296481249854,199.8247057920089,196.42974012496416,,,,,,,,,,,33955,001,2025-11-11_17h27.01.067,regret_experiment,2024.2.4,None,2,0.7,0.5,0.2,2025-11-11 17h27.17.923601 -0800,
42,0,42,left,0.3984772919793613,None,None,,,42,0,42,0,199.8296481249854,,,,,,,,,199.8252928329748,199.8296481249854,-0.0001502500381320715,200.81315195799107,43,2,0.7,0.5,0.2,200.81360133300768,200.8240927499719,200.8240927499719,200.8240927499719,200.8240927499719,201.22696358297253,left,0.3984772919793613,None,left,0.3984772919793613,0.7,1,201.24179079197347,201.24901441700058,201.24901441700058,201.24901441700058,201.24901441700058,203.23057020799024,NA,NA,203.23118983296445,203.23122945800424,None,203.23130487499293,203.2404652920086,204.2300382499816,204.22490433300845,200.8240927499719,,,,,,,,,,,33955,001,2025-11-11_17h27.01.067,regret_experiment,2024.2.4,None,2,0.7,0.5,0.2,2025-11-11 17h27.17.923601 -0800,
43,0,43,left,0.38760679197730497,None,None,,,43,0,43,0,204.2300382499816,,,,,,,,,204.22556941700168,204.2300382499816,0.009252541000023484,205.22515941696474,44,2,0.7,0.5,0.2,205.2258038329892,205.23105674999533,205.23105674999533,205.23105674999533,205.23105674999533,205.62532749999082,left,0.38760679197730497,None,left,0.38760679197730497,0.7,1,205.63868383300724,205.64643683296163,205.64643683296163,205.64643683296163,205.64643683296163,207.62907570798416,NA,NA,207.62967333296547,207.62970579200191,None,207.6297502919915,207.64120091701625,208.6292271669954,208.62477212498197,205.23105674999533,,,,,,,,,,,33955,001,2025-11-11_17h27.01.067,regret_experiment,2024.2.4,None,2,0.7,0.5,0.2,2025-11-11 17h27.17.923601 -0800,
44,0,44,left,0.37500449997605756,None,None,,,44,0,44,0,208.6292271669954,,,,,,,,,208.6250805419986,208.6292271669954,-0.0004634999786503613,209.62490387499565,45,2,0.7,0.5,0.2,209.6251462919754,209.63000670797192,209.63000670797192,209.63000670797192,209.63000670797192,210.00850920798257,left,0.37500449997605756,None,left,0.37500449997605756,0.7,1,210.01976895797998,210.0262225829647,210.0262225829647,210.0262225829647,210.0262225829647,212.01191895798547,NA,NA,212.01268691697624,212.01271904201712,None,212.0127620829735,212.02356329199392,213.01324337499682,213.00825924996752,209.63000670797192,,,,,,,,,,,33955,001,2025-11-11_17h27.01.067,regret_experiment,2024.2.4,None,2,0.7,0.5,0.2,2025-11-11 17h27.17.923601 -0800,
45,0,45,left,0.6005005830083974,None,None,,,45,0,45,0,213.01324337499682,,,,,,,,,213.0089587919647,213.01324337499682,0.0005575420218519866,214.00739429198438,46,2,0.7,0.5,0.2,214.0077358749695,214.01253833301598,214.01253833301598,214.01253833301598,214.01253833301598,214.62524241697975,left,0.6005005830083974,None,left,0.6005005830083974,0.7,1,214.63863945798948,214.6451141249854,214.6451141249854,214.6451141249854,214.6451141249854,216.62843041698216,NA,NA,216.62883574998705,216.62887999997474,None,216.62895204196684,216.64052570797503,217.62958741700277,217.624335874978,214.01253833301598,,,,,,,,,,,33955,001,2025-11-11_17h27.01.067,regret_experiment,2024.2.4,None,2,0.7,0.5,0.2,2025-11-11 17h27.17.923601 -0800,
46,0,46,left,0.5634476669947617,None,None,,,46,0,46,0,217.62958741700277,,,,,,,,,217.62499116698746,217.62958741700277,0.0007517500198446214,218.6239122080151,47,2,0.7,0.5,0.2,218.62801154196495,218.63370016700355,218.63370016700355,218.63370016700355,218.63370016700355,219.20768379198853,left,0.5634476669947617,None,left,0.5634476669947617,0.7,1,219.22515237500193,219.23170162498718,219.23170162498718,219.23170162498718,219.23170162498718,221.21251437498722,NA,NA,221.21311708301073,221.2131528329919,None,221.21321304200683,221.22348537499784,222.21209912496852,222.20693758298876,218.63370016700355,,,,,,,,,,,33955,001,2025-11-11_17h27.01.067,regret_experiment,2024.2.4,None,2,0.7,0.5,0.2,2025-11-11 17h27.17.923601 -0800,
47,0,47,left,0.40692916698753834,None,1,2.5314245839836076,None,47,0,47,0,222.21209912496852,,,,,,,,,222.20738874998642,222.21209912496852,0.010016374988481402,223.19690487498883,48,2,0.7,0.5,0.2,223.19724695797777,223.2066590829636,223.2066590829636,223.2066590829636,223.2066590829636,223.62471504200948,left,0.40692916698753834,None,left,0.40692916698753834,0.7,0,223.63898062496446,223.64603645796888,223.64603645796888,223.64603645796888,223.64603645796888,225.62828075001016,1,2.5314245839836076,225.63540124997962,228.1817177499761,1,228.1818360830075,228.3089874999714,,229.19021641701693,223.2066590829636,225.6440575000015,225.6440575000015,225.6440575000015,225.6440575000015,225.6440575000015,2.5314245839836076,None,,,,33955,001,2025-11-11_17h27.01.067,regret_experiment,2024.2.4,None,2,0.7,0.5,0.2,2025-11-11 17h27.17.923601 -0800,
48,0,48,up,0.5694069169694558,None,2,2.993906208954286,None,48,0,48,0,229.19543833297212,,,,,,,,,229.1905718749622,229.19543833297212,0.00877629203023389,230.17909908300499,49,2,0.7,0.5,0.2,230.17998479196103,230.18882395798573,230.18882395798573,230.18882395798573,230.18882395798573,230.762929666962,up,0.5694069169694558,None,up,0.5694069169694558,0.5,0,230.7775098750135,230.78761470800964,230.78761470800964,230.78761470800964,230.78761470800964,232.77268854196882,2,2.993906208954286,232.7792729170178,235.7908189999871,2,235.79093420796562,235.79780841700267,236.78917216701666,236.78422191698337,230.18882395798573,232.7863659170107,232.7863659170107,232.7863659170107,232.7863659170107,232.7863659170107,2.993906208954286,None,,,,33955,001,2025-11-11_17h27.01.067,regret_experiment,2024.2.4,None,2,0.7,0.5,0.2,2025-11-11 17h27.17.923601 -0800,
49,0,49,right,0.6558625420439057,None,3,2.015778999950271,None,49,0,49,0,236.78917216701666,,,,,,,,,236.78471454198007,236.78917216701666,0.0029933330370113254,237.7732486249879,50,2,0.7,0.5,0.2,237.77985137497308,237.788645291992,237.788645291992,237.788645291992,237.788645291992,238.44654337497195,right,0.6558625420439057,None,right,0.6558625420439057,0.2,0,238.4608286669827,238.46920983301243,238.46920983301243,238.46920983301243,238.46920983301243,240.45571675000247,3,2.015778999950271,240.46231437497772,242.4913182919845,3,242.49159491696628,242.498790542013,243.49433758296072,243.48958758299705,237.78378608298954,240.46827904199017,240.46827904199017,240.46827904199017,240.46827904199017,240.46827904199017,2.015778999950271,None,,,,33955,001,2025-11-11_17h27.01.067,regret_experiment,2024.2.4,None,2,0.7,0.5,0.2,2025-11-11 17h27.17.923601 -0800,
50,0,50,left,1.3306436670245603,None,1,0.8076280410168692,None,50,0,50,0,243.49433758296072,,,,,,,,,243.48995733296033,243.49433758296072,0.002900624996982515,244.4774759580032,51,2,0.7,0.5,0.2,244.4777398330043,244.48883762501646,244.48883762501646,244.48883762501646,244.48883762501646,245.8248816250125,left,1.3306436670245603,None,left,1.3306436670245603,0.7,0,245.84005920798518,245.84906370798126,245.84906370798126,245.84906370798126,245.84906370798126,247.82836191699607,1,0.8076280410168692,247.83595141698606,248.65736095799366,1,248.657478292007,248.66493716696277,249.6629524579621,249.65669649996562,244.48883762501646,247.84410874999594,247.84410874999594,247.84410874999594,247.84410874999594,247.84410874999594,0.8076280410168692,None,,,,33955,001,2025-11-11_17h27.01.067,regret_experiment,2024.2.4,None,2,0.7,0.5,0.2,2025-11-11 17h27.17.923601 -0800,
51,0,51,left,0.3631588330026716,None,2,0.7057595419464633,None,51,0,51,0,249.6629524579621,,,,,,,,,249.6574787920108,249.6629524579621,7.454096339643002e-05,250.64611404197058,52,2,0.7,0.5,0.2,250.64635908300988,250.65586299996357,250.65586299996357,250.65586299996357,250.65586299996357,251.02321216696873,left,0.3631588330026716,None,left,0.3631588330026716,0.7,0,251.03722850000486,251.04410137498053,251.04410137498053,251.04410137498053,251.04410137498053,253.0270127080148,2,0.7057595419464633,253.03514987498056,253.7566661669989,2,253.75673645798815,253.76360399997793,254.76194037497044,254.75651833298616,250.65586299996357,253.0420782919973,253.0420782919973,253.0420782919973,253.0420782919973,253.0420782919973,0.7057595419464633,None,,,,33955,001,2025-11-11_17h27.01.067,regret_experiment,2024.2.4,None,2,0.7,0.5,0.2,2025-11-11 17h27.17.923601 -0800,
52,0,52,up,0.5863212499534711,None,None,,,52,0,52,0,254.76194037497044,,,,,,,,,254.75715483300155,254.76194037497044,0.0004551250021904707,255.75604033301352,53,2,0.7,0.5,0.2,255.7563984579756,255.76105079200352,255.76105079200352,255.76105079200352,255.76105079200352,256.35658595798304,up,0.5863212499534711,None,up,0.5863212499534711,0.5,1,256.3689162079827,256.3755915829679,256.3755915829679,256.3755915829679,256.3755915829679,258.35970258299494,NA,NA,258.3602374579641,258.36026950000087,None,258.36031904199626,258.37149120797403,259.3604460830102,259.35570958297467,255.76105079200352,,,,,,,,,,,33955,001,2025-11-11_17h27.01.067,regret_experiment,2024.2.4,None,2,0.7,0.5,0.2,2025-11-11 17h27.17.923601 -0800,
53,0,53,up,0.8523142909980379,None,None,,,53,0,53,0,259.3604460830102,,,,,,,,,259.3561937920167,259.3604460830102,0.00018858403200283647,260.343745457998,54,2,0.7,0.5,0.2,260.3444347080076,260.35485487501137,260.35485487501137,260.35485487501137,260.35485487501137,261.21184508298757,up,0.8523142909980379,None,up,0.8523142909980379,0.5,1,261.22392191697145,261.2378867499647,261.2378867499647,261.2378867499647,261.2378867499647,263.2214196670102,NA,NA,263.22217583301244,263.22221237496706,None,263.2222555829794,263.2263927079621,264.2214116670075,264.2095130829839,260.35485487501137,,,,,,,,,,,33955,001,2025-11-11_17h27.01.067,regret_experiment,2024.2.4,None,2,0.7,0.5,0.2,2025-11-11 17h27.17.923601 -0800,
54,0,54,up,0.3174505410133861,None,1,2.043100208044052,None,54,0,54,0,264.2214116670075,,,,,,,,,264.2100239999709,264.2214116670075,-0.0007899579941295087,265.2117053749971,55,2,0.7,0.5,0.2,265.21255941700656,265.22223337501055,265.22223337501055,265.22223337501055,265.22223337501055,265.5466162079829,up,0.3174505410133861,None,up,0.3174505410133861,0.5,0,265.55978754197713,265.566214957973,265.566214957973,265.566214957973,265.566214957973,267.554656332999,1,2.043100208044052,267.5612574169645,269.62341841700254,1,269.6236004579696,269.6299777079839,270.6265388749889,270.621917499986,265.2171185829793,267.5678070829599,267.5678070829599,267.5678070829599,267.5678070829599,267.5678070829599,2.043100208044052,None,,,,33955,001,2025-11-11_17h27.01.067,regret_experiment,2024.2.4,None,2,0.7,0.5,0.2,2025-11-11 17h27.17.923601 -0800,
55,0,55,left,0.8321149999974295,None,1,2.0566598339937627,None,55,0,55,0,270.6265388749889,,,,,,,,,270.6222518750001,270.6265388749889,0.0030395830399356782,271.6218787920079,56,2,0.7,0.5,0.2,271.62223537499085,271.627083749976,271.627083749976,271.627083749976,271.627083749976,272.4608209579601,left,0.8321149999974295,None,left,0.8321149999974295,0.7,0,272.47372116701445,272.48016799998004,272.48016799998004,272.48016799998004,272.48016799998004,274.47091191698564,1,2.0566598339937627,274.47742212499725,276.5445384999621,1,276.5446012080065,276.55389920796733,277.54444437497295,277.5389669580036,271.627083749976,274.4833911670139,274.4833911670139,274.4833911670139,274.4833911670139,274.4833911670139,2.0566598339937627,None,,,,33955,001,2025-11-11_17h27.01.067,regret_experiment,2024.2.4,None,2,0.7,0.5,0.2,2025-11-11 17h27.17.923601 -0800,
56,0,56,left,0.3878877909737639,None,None,,,56,0,56,0,277.54444437497295,,,,,,,,,277.5399036669987,277.54444437497295,-7.866701344028115e-05,278.5272367079742,57,2,0.7,0.5,0.2,278.5277477079653,278.5419952920056,278.5419952920056,278.5419952920056,278.5419952920056,278.9383434999618,left,0.3878877909737639,None,left,0.3878877909737639,0.7,1,278.9512628329685,278.9578794169938,278.9578794169938,278.9578794169938,278.9578794169938,280.94240754196653,NA,NA,280.9427547919913,280.94279695797013,None,280.9428623749991,280.9539434170001,,281.9543160829926,278.536810999969,,,,,,,,,,,33955,001,2025-11-11_17h27.01.067,regret_experiment,2024.2.4,None,2,0.7,0.5,0.2,2025-11-11 17h27.17.923601 -0800,
57,0,57,left,0.44399558304576203,None,None,,,57,0,57,0,281.9706458749715,,,,,,,,,281.95519000000786,281.9706458749715,0.012397542013786733,282.9531126669608,58,2,0.7,0.5,0.2,282.9534877499682,282.95835425000405,282.95835425000405,282.95835425000405,282.95835425000405,283.4060182920075,left,0.44399558304576203,None,left,0.44399558304576203,0.7,1,283.4188246669946,283.4258583749761,283.4258583749761,283.4258583749761,283.4258583749761,285.40840620797826,NA,NA,285.40897012496134,285.40900250000414,None,285.409044458007,285.420452166989,286.41688929201337,286.41083433298627,,,,,,,,,,,,33955,001,2025-11-11_17h27.01.067,regret_experiment,2024.2.4,None,2,0.7,0.5,0.2,2025-11-11 17h27.17.923601 -0800,
58,0,58,left,0.8820901669678278,None,1,1.3235263749957085,None,58,0,58,0,286.41688929201337,,,,,,,,,286.41170291701565,286.41688929201337,0.0027101250016130507,287.4038444170146,59,2,0.7,0.5,0.2,287.41107995796483,287.4161694580107,287.4161694580107,287.4161694580107,287.4161694580107,288.304513207986,left,0.8820901669678278,None,left,0.8820901669678278,0.7,0,288.3175704170135,288.32426799996756,288.32426799996756,288.32426799996756,288.32426799996756,290.3105118749663,1,1.3235263749957085,290.3173527920153,291.6552748749964,1,291.6553805829608,291.6617495829705,292.65906366700074,292.6538157920004,287.4161694580107,290.3255796249723,290.3255796249723,290.3255796249723,290.3255796249723,290.3255796249723,1.3235263749957085,None,,,,33955,001,2025-11-11_17h27.01.067,regret_experiment,2024.2.4,None,2,0.7,0.5,0.2,2025-11-11 17h27.17.923601 -0800,
59,0,59,up,0.4545253749820404,None,2,0.9602155000320636,None,59,0,59,0,292.65906366700074,,,,,,,,,292.65439104201505,292.65906366700074,-0.0009339589742012322,293.6543813329772,60,2,0.7,0.5,0.2,293.6546446669963,293.65930987498723,293.65930987498723,293.65930987498723,293.65930987498723,294.1212038329686,up,0.4545253749820404,None,up,0.4545253749820404,0.5,0,294.1360746669816,294.14252454199595,294.14252454199595,294.14252454199595,294.14252454199595,296.12495099997614,2,0.9602155000320636,296.13178845797665,297.1052146250149,2,297.10529904201394,297.11169191700174,298.1471511250129,298.10383958299644,293.65930987498723,296.13786279200576,296.13786279200576,296.13786279200576,296.13786279200576,296.13786279200576,0.9602155000320636,None,,,,33955,001,2025-11-11_17h27.01.067,regret_experiment,2024.2.4,None,2,0.7,0.5,0.2,2025-11-11 17h27.17.923601 -0800,
,,,,,,,,,,,,,,,,,,,,,,,,,,,,,,,,,,,,,,,,,,,,,,,,,,,,,,,,,,,,,,,,,,,N/A,298.13742358301533,298.1471511250129,,,,,,,,,,,,
