thisN,thisTrialN,thisRepN,key_resp_1.keys,key_resp_1.rt,key_resp_1.duration,regret_key.keys,regret_key.rt,regret_key.duration,trials.thisRepN,trials.thisTrialN,trials.thisN,trials.thisIndex,thisRow.t,notes,begin_exp.started,begin.started,advance_key.started,begin_exp.stopped,advance_key.keys,advance_key.rt,advance_key.duration,Fixation.started,fixcross.started,etRecord.started,Fixation.stopped,trial_num,participant_cond,prob_left,prob_up,prob_right,Choice.started,tree1_img.started,tree2_img.started,tree3_img.started,key_resp_1.started,Choice.stopped,trials.key_resp_1.keys,trials.key_resp_1.rt,trials.key_resp_1.duration,choice_key,choice_rt,choice_prob,points,Feedback.started,appleImage.started,tree1.started,tree2.started,tree3.started,Feedback.stopped,regret_rating,regret_rt,RegretRating.started,RegretRating.stopped,trials.regret_key.keys,ITI.started,blank_screen.started,blank_screen.stopped,ITI.stopped,fixcross.stopped,regret_scale.started,regret_key.started,rtree1.started,rtree2.started,rtree3.started,trials.regret_key.rt,trials.regret_key.duration,avg_regret,EndScreen.started,end_display.started,participant,session,date,expName,psychopyVersion,frameRate,participant_cond,prob_left,prob_up,prob_right,expStart,
,,,,,,,,,,,,,,,0.041969832993345335,0.07248674999573268,0.07248674999573268,9.53184983299434,space,9.329381042000023,None,,,,,,2,0.2,0.5,0.7,,,,,,,,,,,,,,,,,,,,,,,,,,,,,,,,,,,,,,,,34003,001,2025-10-22_15h12.55.729,regret_experiment,2024.2.4,None,2,0.2,0.5,0.7,2025-10-22 15h13.10.949829 -0700,
0,0,0,up,0.8761452499966254,None,None,,,0,0,0,0,10.183213166994392,,,,,,,,,9.534615457996551,10.183213166994392,0.002741958000115119,10.536618416997953,1,2,0.2,0.5,0.7,10.537194958000327,10.548614041996188,10.548614041996188,10.548614041996188,10.548614041996188,11.43530770799407,up,0.8761452499966254,None,up,0.8761452499966254,0.5,0,11.47932574999868,11.492704082993441,11.492704082993441,11.492704082993441,11.492704082993441,13.43928666699503,NA,NA,13.440029124998546,13.440133416996105,None,13.44027337499574,13.448954499996034,14.4417103329979,14.433899457995722,,,,,,,,,,,,34003,001,2025-10-22_15h12.55.729,regret_experiment,2024.2.4,None,2,0.2,0.5,0.7,2025-10-22 15h13.10.949829 -0700,
1,0,1,right,0.5460370830041938,None,None,,,1,0,1,0,14.4417103329979,,,,,,,,,14.434763833000034,14.4417103329979,0.0015638339973520488,15.433818124998652,2,2,0.2,0.5,0.7,15.434015457998612,15.43858270799683,15.43858270799683,15.43858270799683,15.43858270799683,15.992712582999957,right,0.5460370830041938,None,right,0.5460370830041938,0.7,1,16.017852166995,16.02751966699725,16.02751966699725,16.02751966699725,16.02751966699725,17.999958374995913,NA,NA,18.000551582998014,18.000638792000245,None,18.000742917000025,18.005938832997344,18.999428832998092,18.98996249999618,15.43858270799683,,,,,,,,,,,34003,001,2025-10-22_15h12.55.729,regret_experiment,2024.2.4,None,2,0.2,0.5,0.7,2025-10-22 15h13.10.949829 -0700,
2,0,2,left,0.3616917920007836,None,None,,,2,0,2,0,18.999428832998092,,,,,,,,,18.990278666999075,18.999428832998092,0.00385866600117879,19.98407983299694,3,2,0.2,0.5,0.7,19.984807749999163,19.99107470799936,19.99107470799936,19.99107470799936,19.99107470799936,20.35726079199958,left,0.3616917920007836,None,left,0.3616917920007836,0.2,0,20.381949291993806,20.389649207994808,20.389649207994808,20.389649207994808,20.389649207994808,22.365970832994208,NA,NA,22.36655320799764,22.36665258299763,None,22.36677370799589,22.371652874993742,23.366548999998486,23.354657166994002,19.99107470799936,,,,,,,,,,,34003,001,2025-10-22_15h12.55.729,regret_experiment,2024.2.4,None,2,0.2,0.5,0.7,2025-10-22 15h13.10.949829 -0700,
3,0,3,right,0.3550659579996136,None,None,,,3,0,3,0,23.366548999998486,,,,,,,,,23.355312874999072,23.366548999998486,-9.87919993349351e-05,24.350225416994363,4,2,0.2,0.5,0.7,24.350907874999393,24.357157916994765,24.357157916994765,24.357157916994765,24.357157916994765,24.718513499996334,right,0.3550659579996136,None,right,0.3550659579996136,0.7,1,24.744274541997584,24.75260299999354,24.75260299999354,24.75260299999354,24.75260299999354,26.722231957995973,NA,NA,26.722981791994243,26.723072207998484,None,26.723177416999533,26.733028041999205,27.72405537499435,27.718019207997713,24.357157916994765,,,,,,,,,,,34003,001,2025-10-22_15h12.55.729,regret_experiment,2024.2.4,None,2,0.2,0.5,0.7,2025-10-22 15h13.10.949829 -0700,
4,0,4,right,0.39860737500566756,None,None,,,4,0,4,0,27.72405537499435,,,,,,,,,27.718800999995437,27.72405537499435,0.0010398329977761023,28.7169472079986,5,2,0.2,0.5,0.7,28.71747999999934,28.72407929199835,28.72407929199835,28.72407929199835,28.72407929199835,29.135331582998333,right,0.39860737500566756,None,right,0.39860737500566756,0.7,0,29.16593112499686,29.19420970799547,29.19420970799547,29.19420970799547,29.19420970799547,31.138702041993383,NA,NA,31.13930870799959,31.139399166997464,None,31.139553457993316,31.149654666995048,32.140593416996126,32.13393766700028,28.72407929199835,,,,,,,,,,,34003,001,2025-10-22_15h12.55.729,regret_experiment,2024.2.4,None,2,0.2,0.5,0.7,2025-10-22 15h13.10.949829 -0700,
5,0,5,up,0.40527750000183005,None,None,,,5,0,5,0,32.140593416996126,,,,,,,,,32.13502166699618,32.140593416996126,0.0011655419948510826,33.13387983299617,6,2,0.2,0.5,0.7,33.134421582995856,33.140202041999146,33.140202041999146,33.140202041999146,33.140202041999146,33.552275249996455,up,0.40527750000183005,None,up,0.40527750000183005,0.5,1,33.57890283299639,33.588236499999766,33.588236499999766,33.588236499999766,33.588236499999766,35.55554874999507,NA,NA,35.55625091699767,35.55635999999504,None,35.556508082998334,35.56628424999508,36.55701370799943,36.550646666997636,33.140202041999146,,,,,,,,,,,34003,001,2025-10-22_15h12.55.729,regret_experiment,2024.2.4,None,2,0.2,0.5,0.7,2025-10-22 15h13.10.949829 -0700,
6,0,6,left,0.39568279100058135,None,None,,,6,0,6,0,36.55701370799943,,,,,,,,,36.551384166996286,36.55701370799943,0.0006610830023419112,37.55027662499924,7,2,0.2,0.5,0.7,37.550815291993786,37.55652137499419,37.55652137499419,37.55652137499419,37.55652137499419,37.95745229199383,left,0.39568279100058135,None,left,0.39568279100058135,0.2,1,37.98117220799759,37.9890800419962,37.9890800419962,37.9890800419962,37.9890800419962,39.96668120799586,NA,NA,39.967330791994755,39.96744379199663,None,39.96758399999817,39.972896874998696,40.9750394579969,40.96744362499885,37.55652137499419,,,,,,,,,,,34003,001,2025-10-22_15h12.55.729,regret_experiment,2024.2.4,None,2,0.2,0.5,0.7,2025-10-22 15h13.10.949829 -0700,
7,0,7,right,0.3549693750028382,None,None,,,7,0,7,0,40.9750394579969,,,,,,,,,40.96842795799603,40.9750394579969,0.0009392079955432564,41.96706595799333,8,2,0.2,0.5,0.7,41.96764620799513,41.97348499999498,41.97348499999498,41.97348499999498,41.97348499999498,42.33509983299882,right,0.3549693750028382,None,right,0.3549693750028382,0.7,1,42.3610153329937,42.369273582997266,42.369273582997266,42.369273582997266,42.369273582997266,44.33933099999558,NA,NA,44.34001570799592,44.34010112499527,None,44.340204166997864,44.3498483749936,45.341218957997626,45.33435224999994,41.97348499999498,,,,,,,,,,,34003,001,2025-10-22_15h12.55.729,regret_experiment,2024.2.4,None,2,0.2,0.5,0.7,2025-10-22 15h13.10.949829 -0700,
8,0,8,up,0.43440537500282517,None,None,,,8,0,8,0,45.341218957997626,,,,,,,,,45.335206791998644,45.341218957997626,0.0011469579985714518,46.33396770800027,9,2,0.2,0.5,0.7,46.334899582994694,46.34260233299574,46.34260233299574,46.34260233299574,46.34260233299574,46.785589416998846,up,0.43440537500282517,None,up,0.43440537500282517,0.5,0,46.81630358300026,46.82570379199751,46.82570379199751,46.82570379199751,46.82570379199751,48.7898576249936,NA,NA,48.79063604199473,48.790732124994975,None,48.790922541993496,48.79972766699939,49.79087249999429,49.78404474999843,46.34260233299574,,,,,,,,,,,34003,001,2025-10-22_15h12.55.729,regret_experiment,2024.2.4,None,2,0.2,0.5,0.7,2025-10-22 15h13.10.949829 -0700,
9,0,9,right,0.2906157079996774,None,None,,,9,0,9,0,49.79087249999429,,,,,,,,,49.78494379199401,49.79087249999429,0.00015354100469266996,50.78393899999355,10,2,0.2,0.5,0.7,50.78441074999864,50.790907707996666,50.790907707996666,50.790907707996666,50.790907707996666,51.086349791999965,right,0.2906157079996774,None,right,0.2906157079996774,0.7,0,51.11642404199665,51.13227733299573,51.13227733299573,51.13227733299573,51.13227733299573,53.08970095800032,NA,NA,53.090273041998444,53.09036354199634,None,53.09052470799361,53.09968695799762,54.09050424999441,54.084022707997065,50.790907707996666,,,,,,,,,,,34003,001,2025-10-22_15h12.55.729,regret_experiment,2024.2.4,None,2,0.2,0.5,0.7,2025-10-22 15h13.10.949829 -0700,
10,0,10,left,0.36684533300285693,None,None,,,10,0,10,0,54.09050424999441,,,,,,,,,54.084854499997164,54.09050424999441,0.0001374159983242862,55.083917042000394,11,2,0.2,0.5,0.7,55.08434899999702,55.090233374998206,55.090233374998206,55.090233374998206,55.090233374998206,55.4683851249938,left,0.36684533300285693,None,left,0.36684533300285693,0.2,0,55.495477124997706,55.504311541997595,55.504311541997595,55.504311541997595,55.504311541997595,57.47363795799902,NA,NA,57.47420066699851,57.47424162499374,None,57.474294291998376,57.483484041993506,58.47378879199823,58.4674680829994,55.090233374998206,,,,,,,,,,,34003,001,2025-10-22_15h12.55.729,regret_experiment,2024.2.4,None,2,0.2,0.5,0.7,2025-10-22 15h13.10.949829 -0700,
11,0,11,up,0.4798369170021033,None,None,,,11,0,11,0,58.47378879199823,,,,,,,,,58.46816445799777,58.47378879199823,-0.0003599159972509369,59.46697887499613,12,2,0.2,0.5,0.7,59.46735224999429,59.47284837500047,59.47284837500047,59.47284837500047,59.47284837500047,59.95727137499489,up,0.4798369170021033,None,up,0.4798369170021033,0.5,0,59.97211108299962,59.97998412499874,59.97998412499874,59.97998412499874,59.97998412499874,61.96668833299918,NA,NA,61.96738179199747,61.96749179199833,None,61.967679541994585,61.972237957998004,62.97402824999881,62.9673213329952,59.47284837500047,,,,,,,,,,,34003,001,2025-10-22_15h12.55.729,regret_experiment,2024.2.4,None,2,0.2,0.5,0.7,2025-10-22 15h13.10.949829 -0700,
12,0,12,up,0.35379987500346033,None,None,,,12,0,12,0,62.97402824999881,,,,,,,,,62.968122250000306,62.97402824999881,0.0005645420023938641,63.967531582995434,13,2,0.2,0.5,0.7,63.96830583299743,63.974344291993475,63.974344291993475,63.974344291993475,63.974344291993475,64.33566374999646,up,0.35379987500346033,None,up,0.35379987500346033,0.5,1,64.36231595799472,64.37702895799885,64.37702895799885,64.37702895799885,64.37702895799885,66.33916070799751,NA,NA,66.33974529199622,66.33982683299837,None,66.33998470799997,66.34975137499714,67.34116041699599,67.33413362499414,63.974344291993475,,,,,,,,,,,34003,001,2025-10-22_15h12.55.729,regret_experiment,2024.2.4,None,2,0.2,0.5,0.7,2025-10-22 15h13.10.949829 -0700,
13,0,13,right,0.4447247500065714,None,None,,,13,0,13,0,67.34116041699599,,,,,,,,,67.3350401669959,67.34116041699599,0.0013439579997793771,68.33399170799385,14,2,0.2,0.5,0.7,68.33450283300044,68.34018929199374,68.34018929199374,68.34018929199374,68.34018929199374,68.7911208749938,right,0.4447247500065714,None,right,0.4447247500065714,0.7,0,68.8179422079993,68.82632908300002,68.82632908300002,68.82632908300002,68.82632908300002,70.80005866699503,NA,NA,70.80064970799867,70.80072358299367,None,70.80082437499368,70.80593550000049,71.80786895799974,71.80070724999678,68.34018929199374,,,,,,,,,,,34003,001,2025-10-22_15h12.55.729,regret_experiment,2024.2.4,None,2,0.2,0.5,0.7,2025-10-22 15h13.10.949829 -0700,
14,0,14,right,0.3204619590032962,None,None,,,14,0,14,0,71.80786895799974,,,,,,,,,71.80146787499689,71.80786895799974,0.000717040995368734,72.80086533299618,15,2,0.2,0.5,0.7,72.8014480829952,72.807963457999,72.807963457999,72.807963457999,72.807963457999,73.13574337499449,right,0.3204619590032962,None,right,0.3204619590032962,0.7,1,73.16303687499749,73.17233087499335,73.17233087499335,73.17233087499335,73.17233087499335,75.13997733299766,NA,NA,75.14086249999673,75.14101312499406,None,75.14147029199376,75.14958479199413,76.14118049999524,76.13424412499444,72.807963457999,,,,,,,,,,,34003,001,2025-10-22_15h12.55.729,regret_experiment,2024.2.4,None,2,0.2,0.5,0.7,2025-10-22 15h13.10.949829 -0700,
15,0,15,left,0.36164895800175145,None,None,,,15,0,15,0,76.14118049999524,,,,,,,,,76.13523741699464,76.14118049999524,2.4170003598555923e-06,77.13389391699457,16,2,0.2,0.5,0.7,77.13469358299335,77.14085108299332,77.14085108299332,77.14085108299332,77.14085108299332,77.51762162499654,left,0.36164895800175145,None,left,0.36164895800175145,0.2,0,77.5411752919972,77.55773070799478,77.55773070799478,77.55773070799478,77.55773070799478,79.52212970799883,NA,NA,79.52273629199772,79.52281066699652,None,79.5229259169937,79.5333436669971,80.5237140829995,80.51731254199694,77.14085108299332,,,,,,,,,,,34003,001,2025-10-22_15h12.55.729,regret_experiment,2024.2.4,None,2,0.2,0.5,0.7,2025-10-22 15h13.10.949829 -0700,
16,0,16,left,0.46050920899870107,None,None,,,16,0,16,0,80.5237140829995,,,,,,,,,80.51806374999433,80.5237140829995,0.0009107909936574288,81.51753845799976,17,2,0.2,0.5,0.7,81.51811229199666,81.52452162499685,81.52452162499685,81.52452162499685,81.52452162499685,81.99175945799652,left,0.46050920899870107,None,left,0.46050920899870107,0.2,0,82.01911574999394,82.02743049999845,82.02743049999845,82.02743049999845,82.02743049999845,84.00021474999812,NA,NA,84.00087395799346,84.00097283299692,None,84.00107841699355,84.00644983299571,85.00834754199605,85.00079608299711,81.52452162499685,,,,,,,,,,,34003,001,2025-10-22_15h12.55.729,regret_experiment,2024.2.4,None,2,0.2,0.5,0.7,2025-10-22 15h13.10.949829 -0700,
17,0,17,up,0.33765150000544963,None,None,,,17,0,17,0,85.00834754199605,,,,,,,,,85.00183249999827,85.00834754199605,0.0008378749989788048,86.00041549999878,18,2,0.2,0.5,0.7,86.0009859999991,86.00683558299352,86.00683558299352,86.00683558299352,86.00683558299352,86.35177587499493,up,0.33765150000544963,None,up,0.33765150000544963,0.5,1,86.37583870799426,86.38406929199846,86.38406929199846,86.38406929199846,86.38406929199846,88.35611179199623,NA,NA,88.35674012499658,88.35682808300044,None,88.35694545799925,88.36648520799645,89.35761199999979,89.35090970799502,86.00683558299352,,,,,,,,,,,34003,001,2025-10-22_15h12.55.729,regret_experiment,2024.2.4,None,2,0.2,0.5,0.7,2025-10-22 15h13.10.949829 -0700,
18,0,18,left,0.3153085409940104,None,None,,,18,0,18,0,89.35761199999979,,,,,,,,,89.35189324999374,89.35761199999979,0.0007872079950175248,90.35067241700017,19,2,0.2,0.5,0.7,90.35129891699762,90.35719383299875,90.35719383299875,90.35719383299875,90.35719383299875,90.67511137499969,left,0.3153085409940104,None,left,0.3153085409940104,0.2,1,90.70072304199857,90.70968137499585,90.70968137499585,90.70968137499585,90.70968137499585,92.68328704199666,NA,NA,92.68387958299718,92.68396616699465,None,92.6840697499938,92.68944145799469,93.68300162499509,93.67290766699443,90.35719383299875,,,,,,,,,,,34003,001,2025-10-22_15h12.55.729,regret_experiment,2024.2.4,None,2,0.2,0.5,0.7,2025-10-22 15h13.10.949829 -0700,
19,0,19,up,0.45547000000078697,None,None,,,19,0,19,0,93.68300162499509,,,,,,,,,93.67355912499625,93.68300162499509,-0.000996791000943631,94.6673794169983,20,2,0.2,0.5,0.7,94.66786920799495,94.67373354199663,94.67373354199663,94.67373354199663,94.67373354199663,95.1353453329939,up,0.45547000000078697,None,up,0.45547000000078697,0.5,0,95.16500666699721,95.17287583299913,95.17287583299913,95.17287583299913,95.17287583299913,97.13984837499447,NA,NA,97.14057916699676,97.140691624998,None,97.14082083299581,97.14969879199634,98.13985087499896,98.13361762499699,94.67373354199663,,,,,,,,,,,34003,001,2025-10-22_15h12.55.729,regret_experiment,2024.2.4,None,2,0.2,0.5,0.7,2025-10-22 15h13.10.949829 -0700,
20,0,20,up,0.34882125000149244,None,None,,,20,0,20,0,98.13985087499896,,,,,,,,,98.13429762499436,98.13985087499896,-0.0008403329993598163,99.13417929199932,21,2,0.2,0.5,0.7,99.13471541699982,99.14095850000012,99.14095850000012,99.14095850000012,99.14095850000012,99.49226849999832,up,0.34882125000149244,None,up,0.34882125000149244,0.5,1,99.51638529199408,99.52426045799803,99.52426045799803,99.52426045799803,99.52426045799803,101.50014658299915,NA,NA,101.50073629199323,101.50082345799456,None,101.50093716699485,101.50614849999693,102.49923366699659,102.48989912499383,99.14095850000012,,,,,,,,,,,34003,001,2025-10-22_15h12.55.729,regret_experiment,2024.2.4,None,2,0.2,0.5,0.7,2025-10-22 15h13.10.949829 -0700,
21,0,21,right,0.3502899579980294,None,None,,,21,0,21,0,102.49923366699659,,,,,,,,,102.4907349999994,102.49923366699659,0.003550124994944781,103.48420424999495,22,2,0.2,0.5,0.7,103.48483083299652,103.49101208299544,103.49101208299544,103.49101208299544,103.49101208299544,103.85206554199976,right,0.3502899579980294,None,right,0.3502899579980294,0.7,1,103.87632591699366,103.8850580829967,103.8850580829967,103.8850580829967,103.8850580829967,105.85589349999645,NA,NA,105.85661612499825,105.85672533299658,None,105.85687804199551,105.86654508299398,106.85582291699393,106.85057562499424,103.49101208299544,,,,,,,,,,,34003,001,2025-10-22_15h12.55.729,regret_experiment,2024.2.4,None,2,0.2,0.5,0.7,2025-10-22 15h13.10.949829 -0700,
22,0,22,left,0.3953732910013059,None,None,,,22,0,22,0,106.85582291699393,,,,,,,,,106.85106324999651,106.85582291699393,-0.0009259580037905835,107.83915024999442,23,2,0.2,0.5,0.7,107.83972324999922,107.85598516699974,107.85598516699974,107.85598516699974,107.85598516699974,108.25858633299504,left,0.3953732910013059,None,left,0.3953732910013059,0.2,1,108.28450145799434,108.29270254199946,108.29270254199946,108.29270254199946,108.29270254199946,110.26645166699745,NA,NA,110.26718645799701,110.26726241699362,None,110.26739237499714,110.27222120799706,111.26647766699898,111.25596983299329,107.8500110419991,,,,,,,,,,,34003,001,2025-10-22_15h12.55.729,regret_experiment,2024.2.4,None,2,0.2,0.5,0.7,2025-10-22 15h13.10.949829 -0700,
23,0,23,up,0.3601671249998617,None,None,,,23,0,23,0,111.26647766699898,,,,,,,,,111.25681975000043,111.26647766699898,-0.0007843750063329935,112.25091683299979,24,2,0.2,0.5,0.7,112.25193299999955,112.25892974999442,112.25892974999442,112.25892974999442,112.25892974999442,112.62899616699724,up,0.3601671249998617,None,up,0.3601671249998617,0.5,1,112.65480770799331,112.66540537499532,112.66540537499532,112.66540537499532,112.66540537499532,114.63340987499396,NA,NA,114.63424424999539,114.6343559579982,None,114.63453583299997,114.63975462499366,115.64101775000017,115.6339961249978,112.25892974999442,,,,,,,,,,,34003,001,2025-10-22_15h12.55.729,regret_experiment,2024.2.4,None,2,0.2,0.5,0.7,2025-10-22 15h13.10.949829 -0700,
24,0,24,right,0.32786154199857265,None,None,,,24,0,24,0,115.64101775000017,,,,,,,,,115.63484224999411,115.64101775000017,0.0004249580015311949,116.6337090829984,25,2,0.2,0.5,0.7,116.6343743749967,116.64016908299527,116.64016908299527,116.64016908299527,116.64016908299527,116.97303920799459,right,0.32786154199857265,None,right,0.32786154199857265,0.7,1,116.9950861249963,117.00357916699431,117.00357916699431,117.00357916699431,117.00357916699431,118.98337312499643,NA,NA,118.98397920799471,118.9840706249961,None,118.98418666699581,118.98968349999632,119.98999458299659,119.98418608299835,116.64016908299527,,,,,,,,,,,34003,001,2025-10-22_15h12.55.729,regret_experiment,2024.2.4,None,2,0.2,0.5,0.7,2025-10-22 15h13.10.949829 -0700,
25,0,25,left,0.2905540409992682,None,None,,,25,0,25,0,119.98999458299659,,,,,,,,,119.9849217919982,119.98999458299659,0.0008215829948312603,120.98415737499454,26,2,0.2,0.5,0.7,120.98465991699777,120.99023141699581,120.99023141699581,120.99023141699581,120.99023141699581,121.28834195799573,left,0.2905540409992682,None,left,0.2905540409992682,0.2,0,121.30209579199436,121.30948229199566,121.30948229199566,121.30948229199566,121.30948229199566,123.28866408299655,NA,NA,123.28981824999937,123.28992350000044,None,123.29004266699485,123.29960062499595,124.28992508299416,124.28401279199898,120.99023141699581,,,,,,,,,,,34003,001,2025-10-22_15h12.55.729,regret_experiment,2024.2.4,None,2,0.2,0.5,0.7,2025-10-22 15h13.10.949829 -0700,
26,0,26,up,0.3341752920023282,None,None,,,26,0,26,0,124.28992508299416,,,,,,,,,124.28473191699595,124.28992508299416,1.5839978004805744e-06,125.28394112499518,27,2,0.2,0.5,0.7,125.28453662499669,125.29027341699839,125.29027341699839,125.29027341699839,125.29027341699839,125.63792154199473,up,0.3341752920023282,None,up,0.3341752920023282,0.5,1,125.66342208299466,125.6714284579939,125.6714284579939,125.6714284579939,125.6714284579939,127.63948708299722,NA,NA,127.64030300000013,127.64039487499394,None,127.64053633299773,127.649905708,128.64100849999522,128.63425054199615,125.29027341699839,,,,,,,,,,,34003,001,2025-10-22_15h12.55.729,regret_experiment,2024.2.4,None,2,0.2,0.5,0.7,2025-10-22 15h13.10.949829 -0700,
27,0,27,right,0.32131495799694676,None,None,,,27,0,27,0,128.64100849999522,,,,,,,,,128.6353767499968,128.64100849999522,0.0006099579986766912,129.6341159999938,28,2,0.2,0.5,0.7,129.63492283300002,129.64056112499384,129.64056112499384,129.64056112499384,129.64056112499384,129.96891279199917,right,0.32131495799694676,None,right,0.32131495799694676,0.7,1,129.99501683299604,130.00323837500036,130.00323837500036,130.00323837500036,130.00323837500036,131.9733610829935,NA,NA,131.9741584999938,131.97426287499547,None,131.97445258299558,131.98253449999902,132.97332291699422,132.96746999999596,129.64056112499384,,,,,,,,,,,34003,001,2025-10-22_15h12.55.729,regret_experiment,2024.2.4,None,2,0.2,0.5,0.7,2025-10-22 15h13.10.949829 -0700,
28,0,28,left,0.2834548749960959,None,None,,,28,0,28,0,132.97332291699422,,,,,,,,,132.96806487499998,132.97332291699422,-0.0009588750035618432,133.9669503329933,29,2,0.2,0.5,0.7,133.96746524999617,133.97315587499907,133.97315587499907,133.97315587499907,133.97315587499907,134.26791937499365,left,0.2834548749960959,None,left,0.2834548749960959,0.2,0,134.29628524999862,134.30433012499998,134.30433012499998,134.30433012499998,134.30433012499998,136.27215549999528,NA,NA,136.2727387499981,136.27282579199527,None,136.27294404199347,136.28312679199735,137.2742617499971,137.2676685829938,133.97315587499907,,,,,,,,,,,34003,001,2025-10-22_15h12.55.729,regret_experiment,2024.2.4,None,2,0.2,0.5,0.7,2025-10-22 15h13.10.949829 -0700,
29,0,29,left,0.6870995829958702,None,None,,,29,0,29,0,137.2742617499971,,,,,,,,,137.26846554199437,137.2742617499971,0.0014363750015036203,138.26769316699938,30,2,0.2,0.5,0.7,138.26825945799646,138.2743306669945,138.2743306669945,138.2743306669945,138.2743306669945,138.96867912499874,left,0.6870995829958702,None,left,0.6870995829958702,0.2,0,138.99618295799883,139.00539345799916,139.00539345799916,139.00539345799916,139.00539345799916,140.9728582079988,NA,NA,140.97355254199647,140.97364470799948,None,140.97378633299377,140.9832659579988,141.97385483299877,141.96747995799524,138.2743306669945,,,,,,,,,,,34003,001,2025-10-22_15h12.55.729,regret_experiment,2024.2.4,None,2,0.2,0.5,0.7,2025-10-22 15h13.10.949829 -0700,
30,0,30,up,0.4353537920032977,None,2,3.06101862500509,None,30,0,30,0,141.97385483299877,,,,,,,,,141.9680664999978,141.97385483299877,0.00021829199977219105,142.96718795799825,31,2,0.2,0.5,0.7,142.96748812499573,142.97322945799533,142.97322945799533,142.97322945799533,142.97322945799533,143.41902699999628,up,0.4353537920032977,None,up,0.4353537920032977,0.5,0,143.44593308299955,143.4547547080001,143.4547547080001,143.4547547080001,143.4547547080001,145.42224916699342,2,3.06101862500509,145.44163262499933,148.5251235830001,2,148.52529191699432,148.6634242500004,,149.53365666699392,142.97322945799533,145.46004912499484,145.46004912499484,145.46004912499484,145.46004912499484,145.46004912499484,3.06101862500509,None,,,,34003,001,2025-10-22_15h12.55.729,regret_experiment,2024.2.4,None,2,0.2,0.5,0.7,2025-10-22 15h13.10.949829 -0700,
31,0,31,up,0.6278626249986701,None,1,1.3862868750002235,None,31,0,31,0,149.54162570799963,,,,,,,,,149.53462279199448,149.54162570799963,0.009467042000324,150.53356266699848,32,2,0.2,0.5,0.7,150.53430874999322,150.54024779199972,150.54024779199972,150.54024779199972,150.54024779199972,151.17521474999376,up,0.6278626249986701,None,up,0.6278626249986701,0.5,0,151.20434354199824,151.21245395799633,151.21245395799633,151.21245395799633,151.21245395799633,153.18288570799632,1,1.3862868750002235,153.19900508299907,154.60164766699745,1,154.60181820799335,154.6116581669994,155.60833612499846,155.6008036669955,,153.2062667919963,153.2062667919963,153.2062667919963,153.2062667919963,153.2062667919963,1.3862868750002235,None,,,,34003,001,2025-10-22_15h12.55.729,regret_experiment,2024.2.4,None,2,0.2,0.5,0.7,2025-10-22 15h13.10.949829 -0700,
32,0,32,right,0.3823395840008743,None,None,,,32,0,32,0,155.60833612499846,,,,,,,,,155.6017464999968,155.60833612499846,1.8291000742465258e-05,156.60069895799825,33,2,0.2,0.5,0.7,156.601221041994,156.83679737499915,156.83679737499915,156.83679737499915,156.83679737499915,157.22436154199386,right,0.3823395840008743,None,right,0.3823395840008743,0.7,1,157.24633287499455,157.25534379199962,157.25534379199962,157.25534379199962,157.25534379199962,159.23373112499394,NA,NA,159.23459004199685,159.234703874994,None,159.23483266699623,159.24036008300027,160.24187366699334,160.23423095799808,156.83679737499915,,,,,,,,,,,34003,001,2025-10-22_15h12.55.729,regret_experiment,2024.2.4,None,2,0.2,0.5,0.7,2025-10-22 15h13.10.949829 -0700,
33,0,33,left,0.44901687500532717,None,1,0.9273251670019818,None,33,0,33,0,160.24187366699334,,,,,,,,,160.23535479199927,160.24187366699334,0.00061374999495456,161.23413629199786,34,2,0.2,0.5,0.7,161.2346311250003,161.24071370799356,161.24071370799356,161.24071370799356,161.24071370799356,161.6922141249961,left,0.44901687500532717,None,left,0.44901687500532717,0.2,0,161.72005108299345,161.72824183299963,161.72824183299963,161.72824183299963,161.72824183299963,163.70005741699424,1,0.9273251670019818,163.71637637499953,164.66874904199358,1,164.6689108329956,164.67788570799894,165.67419379199418,165.6671226249964,161.24071370799356,163.729560957996,163.729560957996,163.729560957996,163.729560957996,163.729560957996,0.9273251670019818,None,,,,34003,001,2025-10-22_15h12.55.729,regret_experiment,2024.2.4,None,2,0.2,0.5,0.7,2025-10-22 15h13.10.949829 -0700,
34,0,34,up,0.3783866250014398,None,1,0.941649291999056,None,34,0,34,0,165.67419379199418,,,,,,,,,165.66804404199502,165.67419379199418,-0.0007871670022723265,166.66749166699447,35,2,0.2,0.5,0.7,166.66829595799936,166.67407937499956,166.67407937499956,166.67407937499956,166.67407937499956,167.05755049999425,up,0.3783866250014398,None,up,0.3783866250014398,0.5,0,167.07361995799874,167.0806146670002,167.0806146670002,167.0806146670002,167.0806146670002,169.0675225829982,1,0.941649291999056,169.08443874999648,170.04262333299994,1,170.0430787919977,170.0555319579944,171.04975733299943,171.03994070799672,166.67407937499956,169.0937970419982,169.0937970419982,169.0937970419982,169.0937970419982,169.0937970419982,0.941649291999056,None,,,,34003,001,2025-10-22_15h12.55.729,regret_experiment,2024.2.4,None,2,0.2,0.5,0.7,2025-10-22 15h13.10.949829 -0700,
35,0,35,right,0.46437829099886585,None,None,,,35,0,35,0,171.04975733299943,,,,,,,,,171.0410285830003,171.04975733299943,0.006911374999617692,172.0340662499948,36,2,0.2,0.5,0.7,172.03479879199585,172.04041212499578,172.04041212499578,172.04041212499578,172.04041212499578,172.50860987499618,right,0.46437829099886585,None,right,0.46437829099886585,0.7,1,172.53601649999473,172.54465220799466,172.54465220799466,172.54465220799466,172.54465220799466,174.51718729199638,NA,NA,174.5178314579971,174.51789799999824,None,174.518013916997,174.52366400000028,175.52482987499388,175.51739062499837,172.04041212499578,,,,,,,,,,,34003,001,2025-10-22_15h12.55.729,regret_experiment,2024.2.4,None,2,0.2,0.5,0.7,2025-10-22 15h13.10.949829 -0700,
36,0,36,right,0.7581073749970528,None,None,,,36,0,36,0,175.52482987499388,,,,,,,,,175.51822462499695,175.52482987499388,0.0002945829983218573,176.51685037499556,37,2,0.2,0.5,0.7,176.51712354199844,176.521769125,176.521769125,176.521769125,176.521769125,177.28431695799372,right,0.7581073749970528,None,right,0.7581073749970528,0.7,1,177.29616499999975,177.30714420799632,177.30714420799632,177.30714420799632,177.30714420799632,179.28971824999462,NA,NA,179.29030562499975,179.29033566699945,None,179.29038141699857,179.2999155419966,180.29982970799756,180.2868432499963,176.521769125,,,,,,,,,,,34003,001,2025-10-22_15h12.55.729,regret_experiment,2024.2.4,None,2,0.2,0.5,0.7,2025-10-22 15h13.10.949829 -0700,
37,0,37,up,0.3294196670030942,None,None,,,37,0,37,0,180.29982970799756,,,,,,,,,180.28726916699816,180.29982970799756,0.009500166001089383,181.28400962500018,38,2,0.2,0.5,0.7,181.2842935419976,181.28905979199772,181.28905979199772,181.28905979199772,181.28905979199772,181.62377249999554,up,0.3294196670030942,None,up,0.3294196670030942,0.5,1,181.6356299580002,181.64251137499377,181.64251137499377,181.64251137499377,181.64251137499377,183.63347262499883,NA,NA,183.6340616249945,183.6341489999977,None,183.6342786669993,183.63938999999664,184.6333131249994,184.62260245799553,181.28905979199772,,,,,,,,,,,34003,001,2025-10-22_15h12.55.729,regret_experiment,2024.2.4,None,2,0.2,0.5,0.7,2025-10-22 15h13.10.949829 -0700,
38,0,38,left,0.38602954099769704,None,1,0.9673894999941695,None,38,0,38,0,184.6333131249994,,,,,,,,,184.6233837079999,184.6333131249994,-0.0008352910008397885,185.6171197079966,39,2,0.2,0.5,0.7,185.61768733299687,185.63331570799346,185.63331570799346,185.63331570799346,185.63331570799346,186.025263042,left,0.38602954099769704,None,left,0.38602954099769704,0.2,0,186.0532427500002,186.06287491699914,186.06287491699914,186.06287491699914,186.06287491699914,188.03365679199487,1,0.9673894999941695,188.05017670799862,189.03507083299337,1,189.0352383749996,189.04470129199763,190.04198349999933,190.03436712499388,185.62251958299748,188.0575574579998,188.0575574579998,188.0575574579998,188.0575574579998,188.0575574579998,0.9673894999941695,None,,,,34003,001,2025-10-22_15h12.55.729,regret_experiment,2024.2.4,None,2,0.2,0.5,0.7,2025-10-22 15h13.10.949829 -0700,
39,0,39,right,0.5050932500016643,None,None,,,39,0,39,0,190.04198349999933,,,,,,,,,190.03523770799802,190.04198349999933,9.266599954571575e-05,191.03426020799816,40,2,0.2,0.5,0.7,191.03473791699798,191.04046741699858,191.04046741699858,191.04046741699858,191.04046741699858,191.55228995799553,right,0.5050932500016643,None,right,0.5050932500016643,0.7,1,191.5772456249979,191.58570495799358,191.58570495799358,191.58570495799358,191.58570495799358,193.55596591699577,NA,NA,193.55669466699328,193.55676804199902,None,193.55689341699326,193.5666618749965,194.55662887499784,194.5505785419955,191.04046741699858,,,,,,,,,,,34003,001,2025-10-22_15h12.55.729,regret_experiment,2024.2.4,None,2,0.2,0.5,0.7,2025-10-22 15h13.10.949829 -0700,
40,0,40,right,0.2833442080009263,None,None,,,40,0,40,0,194.55662887499784,,,,,,,,,194.55124858299678,194.55662887499784,-0.0001424999936716631,195.55110612499993,41,2,0.2,0.5,0.7,195.55172612499882,195.55756166699575,195.55756166699575,195.55756166699575,195.55756166699575,195.85228924999683,right,0.2833442080009263,None,right,0.2833442080009263,0.7,1,195.87726929199562,195.88557654199394,195.88557654199394,195.88557654199394,195.88557654199394,197.8560398749978,NA,NA,197.85677324999415,197.85684745799517,None,197.85697633299424,197.86680137499934,198.85813495799812,198.85121466699638,195.55756166699575,,,,,,,,,,,34003,001,2025-10-22_15h12.55.729,regret_experiment,2024.2.4,None,2,0.2,0.5,0.7,2025-10-22 15h13.10.949829 -0700,
41,0,41,right,0.3185271250040387,None,1,0.5408842499964521,None,41,0,41,0,198.85813495799812,,,,,,,,,198.85236954199354,198.85813495799812,0.0012790420005330816,199.8510800829972,42,2,0.2,0.5,0.7,199.8518638329988,199.8580404999957,199.8580404999957,199.8580404999957,199.8580404999957,200.18534050000017,right,0.3185271250040387,None,right,0.3185271250040387,0.7,0,200.21379487499507,200.22183962499548,200.22183962499548,200.22183962499548,200.22183962499548,202.18921170799877,1,0.5408842499964521,202.2052782499959,202.75807604199508,1,202.75825179199455,202.76687599999423,203.75805704199593,203.75113637499453,199.8580404999957,202.21266024999932,202.21266024999932,202.21266024999932,202.21266024999932,202.21266024999932,0.5408842499964521,None,,,,34003,001,2025-10-22_15h12.55.729,regret_experiment,2024.2.4,None,2,0.2,0.5,0.7,2025-10-22 15h13.10.949829 -0700,
42,0,42,left,0.41132845799438655,None,1,0.6802385000046343,None,42,0,42,0,203.75805704199593,,,,,,,,,203.7521775829955,203.75805704199593,-7.170900062192231e-05,204.7509421249997,43,2,0.2,0.5,0.7,204.75156254199828,204.75730824999482,204.75730824999482,204.75730824999482,204.75730824999482,205.17501974999323,left,0.41132845799438655,None,left,0.41132845799438655,0.2,0,205.20052379199478,205.20851312499872,205.20851312499872,205.20851312499872,205.20851312499872,207.183577374999,1,0.6802385000046343,207.20076024999435,207.89207083299698,1,207.89222562499344,207.90283966699644,208.8998476669949,208.8902622079986,204.75730824999482,207.2084025419972,207.2084025419972,207.2084025419972,207.2084025419972,207.2084025419972,0.6802385000046343,None,,,,34003,001,2025-10-22_15h12.55.729,regret_experiment,2024.2.4,None,2,0.2,0.5,0.7,2025-10-22 15h13.10.949829 -0700,
43,0,43,up,0.3978681250009686,None,None,,,43,0,43,0,208.8998476669949,,,,,,,,,208.89093916699494,208.8998476669949,0.007761041997582652,209.88419187499676,44,2,0.2,0.5,0.7,209.88472812499822,209.89056633299333,209.89056633299333,209.89056633299333,209.89056633299333,210.30026908299624,up,0.3978681250009686,None,up,0.3978681250009686,0.5,1,210.31198012499954,210.31875954199495,210.31875954199495,210.31875954199495,210.31875954199495,212.30689383299614,NA,NA,212.30747637499735,212.3075504169974,None,212.3076500419993,212.31674179199763,213.30786045799323,213.30109037499642,209.89056633299333,,,,,,,,,,,34003,001,2025-10-22_15h12.55.729,regret_experiment,2024.2.4,None,2,0.2,0.5,0.7,2025-10-22 15h13.10.949829 -0700,
44,0,44,right,0.32846341600088635,None,1,0.6614596250001341,None,44,0,44,0,213.30786045799323,,,,,,,,,213.30212808299984,213.30786045799323,0.0003382920040166937,214.30101108300005,45,2,0.2,0.5,0.7,214.3015429579973,214.30728695799917,214.30728695799917,214.30728695799917,214.30728695799917,214.64251816699834,right,0.32846341600088635,None,right,0.32846341600088635,0.7,0,214.6704299579942,214.67938783299905,214.67938783299905,214.67938783299905,214.67938783299905,216.6504297499996,1,0.6614596250001341,216.65713191699615,217.3357557499985,1,217.33594274999632,217.34660999999323,218.34209008299513,218.33452470799966,214.30728695799917,216.66703487499763,216.66703487499763,216.66703487499763,216.66703487499763,216.66703487499763,0.6614596250001341,None,,,,34003,001,2025-10-22_15h12.55.729,regret_experiment,2024.2.4,None,2,0.2,0.5,0.7,2025-10-22 15h13.10.949829 -0700,
45,0,45,left,0.36246666700026253,None,1,0.7539197919977596,None,45,0,45,0,218.34209008299513,,,,,,,,,218.33539033299894,218.34209008299513,-0.00044662499567493796,219.3344494579942,46,2,0.2,0.5,0.7,219.33510912499332,219.3423047499964,219.3423047499964,219.3423047499964,219.3423047499964,219.7085777079992,left,0.36246666700026253,None,left,0.36246666700026253,0.2,0,219.74050029199861,219.74856399999408,219.74856399999408,219.74856399999408,219.74856399999408,221.717023666999,1,0.7539197919977596,221.73535558299773,222.50161795799795,1,222.50171045799652,222.50581358299678,223.4999758329941,223.48983574999875,219.3423047499964,221.74270816699573,221.74270816699573,221.74270816699573,221.74270816699573,221.74270816699573,0.7539197919977596,None,,,,34003,001,2025-10-22_15h12.55.729,regret_experiment,2024.2.4,None,2,0.2,0.5,0.7,2025-10-22 15h13.10.949829 -0700,
46,0,46,up,0.4048917079999228,None,None,,,46,0,46,0,223.4999758329941,,,,,,,,,223.49079054199683,223.4999758329941,0.0033791250025387853,224.48426733299857,47,2,0.2,0.5,0.7,224.4850539580002,224.50010179200035,224.50010179200035,224.50010179200035,224.50010179200035,224.90848366699356,up,0.4048917079999228,None,up,0.4048917079999228,0.5,1,224.93548083299538,224.94384941699536,224.94384941699536,224.94384941699536,224.94384941699536,226.91666141699534,NA,NA,226.91699391699512,226.9170275419965,None,226.9170723749994,226.921142332998,227.91671583299467,227.90522287499334,224.48995333299536,,,,,,,,,,,34003,001,2025-10-22_15h12.55.729,regret_experiment,2024.2.4,None,2,0.2,0.5,0.7,2025-10-22 15h13.10.949829 -0700,
47,0,47,right,0.3328146249987185,None,None,,,47,0,47,0,227.91671583299467,,,,,,,,,227.90590708299715,227.91671583299467,-0.0002999580028699711,228.90125729199644,48,2,0.2,0.5,0.7,228.90187933299603,228.90767716699338,228.90767716699338,228.90767716699338,228.90767716699338,229.25123733299552,right,0.3328146249987185,None,right,0.3328146249987185,0.7,1,229.26489308299642,229.27201437499753,229.27201437499753,229.27201437499753,229.27201437499753,231.2547525419941,NA,NA,231.25541724999493,231.25551304199325,None,231.25564345799648,231.26657487499324,232.2547623749997,232.2500327079979,228.90767716699338,,,,,,,,,,,34003,001,2025-10-22_15h12.55.729,regret_experiment,2024.2.4,None,2,0.2,0.5,0.7,2025-10-22 15h13.10.949829 -0700,
48,0,48,left,0.29462524999689776,None,None,,,48,0,48,0,232.2547623749997,,,,,,,,,232.25045720799972,232.2547623749997,-0.0007822920015314594,233.23921549999795,49,2,0.2,0.5,0.7,233.23945754199667,233.2499380829977,233.2499380829977,233.2499380829977,233.2499380829977,233.55090666699834,left,0.29462524999689776,None,left,0.29462524999689776,0.2,1,233.56258279199392,233.56967362499563,233.56967362499563,233.56967362499563,233.56967362499563,235.555305707996,NA,NA,235.555827958,235.55586416699953,None,235.55593041699467,235.5666437079999,236.55743945799622,236.5508826249934,233.2499380829977,,,,,,,,,,,34003,001,2025-10-22_15h12.55.729,regret_experiment,2024.2.4,None,2,0.2,0.5,0.7,2025-10-22 15h13.10.949829 -0700,
49,0,49,right,0.28551970799890114,None,None,,,49,0,49,0,236.55743945799622,,,,,,,,,236.55154287500045,236.55743945799622,0.0016474580042995512,237.5407734170003,50,2,0.2,0.5,0.7,237.5410567919971,237.54913183299504,237.54913183299504,237.54913183299504,237.54913183299504,237.84060124999814,right,0.28551970799890114,None,right,0.28551970799890114,0.7,1,237.85216170799686,237.85908379199827,237.85908379199827,237.85908379199827,237.85908379199827,239.85042287499527,NA,NA,239.85077658299997,239.8508116249941,None,239.85086337499524,239.85569341699738,240.85643783299747,240.85072145799495,237.54913183299504,,,,,,,,,,,34003,001,2025-10-22_15h12.55.729,regret_experiment,2024.2.4,None,2,0.2,0.5,0.7,2025-10-22 15h13.10.949829 -0700,
50,0,50,up,0.3516274159992463,None,1,0.7523000419969321,None,50,0,50,0,240.85643783299747,,,,,,,,,240.8510889579993,240.85643783299747,0.0002642500039655715,241.83984587499435,51,2,0.2,0.5,0.7,241.84010320800007,241.84962274999998,241.84962274999998,241.84962274999998,241.84962274999998,242.2076344579982,up,0.3516274159992463,None,up,0.3516274159992463,0.5,0,242.22110829199664,242.2281380419954,242.2281380419954,242.2281380419954,242.2281380419954,244.2169947079965,1,0.7523000419969321,244.2252964579966,244.99079041699588,1,244.9908877919952,244.9999605829944,245.99964466699748,245.98807187499915,241.84962274999998,244.23264437499893,244.23264437499893,244.23264437499893,244.23264437499893,244.23264437499893,0.7523000419969321,None,,,,34003,001,2025-10-22_15h12.55.729,regret_experiment,2024.2.4,None,2,0.2,0.5,0.7,2025-10-22 15h13.10.949829 -0700,
51,0,51,left,0.4495042080015992,None,1,0.4583387499951641,None,51,0,51,0,245.99964466699748,,,,,,,,,245.98848424999596,245.99964466699748,0.008884666000085417,246.98561625000002,52,2,0.2,0.5,0.7,246.98615941699973,246.9920644169979,246.9920644169979,246.9920644169979,246.9920644169979,247.45240329199441,left,0.4495042080015992,None,left,0.4495042080015992,0.2,0,247.4835211249956,247.49155566699483,247.49155566699483,247.49155566699483,247.49155566699483,249.45535912499327,1,0.4583387499951641,249.47149045799597,249.94222387499758,1,249.9423692499986,249.95338712499506,250.9501009999949,250.93966570799967,246.9920644169979,249.47889666699484,249.47889666699484,249.47889666699484,249.47889666699484,249.47889666699484,0.4583387499951641,None,,,,34003,001,2025-10-22_15h12.55.729,regret_experiment,2024.2.4,None,2,0.2,0.5,0.7,2025-10-22 15h13.10.949829 -0700,
52,0,52,up,0.3479602910010726,None,2,0.3949566670053173,None,52,0,52,0,250.9501009999949,,,,,,,,,250.94037595799455,250.9501009999949,0.007858999997552019,251.93464216699795,53,2,0.2,0.5,0.7,251.93535499999416,251.9413737079958,251.9413737079958,251.9413737079958,251.9413737079958,252.29248620799626,up,0.3479602910010726,None,up,0.3479602910010726,0.5,0,252.31816279199847,252.32635166699765,252.32635166699765,252.32635166699765,252.32635166699765,254.30043670799932,2,0.3949566670053173,254.31872704199486,254.72494924999774,2,254.72509299999365,254.73672529199393,255.73344016699411,255.72256237499823,251.9413737079958,254.32622795799398,254.32622795799398,254.32622795799398,254.32622795799398,254.32622795799398,0.3949566670053173,None,,,,34003,001,2025-10-22_15h12.55.729,regret_experiment,2024.2.4,None,2,0.2,0.5,0.7,2025-10-22 15h13.10.949829 -0700,
53,0,53,right,0.3646777500034659,None,1,0.35729587500100024,None,53,0,53,0,255.73344016699411,,,,,,,,,255.72350045799976,255.73344016699411,0.008476041999529116,256.7176070419955,54,2,0.2,0.5,0.7,256.7182490829946,256.7246998749979,256.7246998749979,256.7246998749979,256.7246998749979,257.0920661669952,right,0.3646777500034659,None,right,0.3646777500034659,0.7,0,257.1172742919953,257.12562400000024,257.12562400000024,257.12562400000024,257.12562400000024,259.100432332998,1,0.35729587500100024,259.11627462499746,259.48501533299714,1,259.48518387499644,259.49027020799986,260.49180933299795,260.48417016699386,256.7246998749979,259.12372841699835,259.12372841699835,259.12372841699835,259.12372841699835,259.12372841699835,0.35729587500100024,None,,,,34003,001,2025-10-22_15h12.55.729,regret_experiment,2024.2.4,None,2,0.2,0.5,0.7,2025-10-22 15h13.10.949829 -0700,
54,0,54,left,0.3013532090044464,None,1,0.4046578750057961,None,54,0,54,0,260.49180933299795,,,,,,,,,260.48502962499333,260.49180933299795,-5.508400499820709e-05,261.48452641699987,55,2,0.2,0.5,0.7,261.4851792499976,261.49130687499564,261.49130687499564,261.49130687499564,261.49130687499564,261.8021274579951,left,0.3013532090044464,None,left,0.3013532090044464,0.2,0,261.8298430829964,261.838126249997,261.838126249997,261.838126249997,261.838126249997,263.8064162499941,1,0.4046578750057961,263.82315074999497,264.2416410829974,1,264.2417859579946,264.25298033299623,265.2501146249997,265.2392818329972,261.49130687499564,263.83054770799936,263.83054770799936,263.83054770799936,263.83054770799936,263.83054770799936,0.4046578750057961,None,,,,34003,001,2025-10-22_15h12.55.729,regret_experiment,2024.2.4,None,2,0.2,0.5,0.7,2025-10-22 15h13.10.949829 -0700,
55,0,55,left,0.2958792909994372,None,1,0.42942095900070854,None,55,0,55,0,265.2501146249997,,,,,,,,,265.24048516699986,265.2501146249997,0.008445000006759074,266.23422516699793,56,2,0.2,0.5,0.7,266.2347737079981,266.2407840829983,266.2407840829983,266.2407840829983,266.2407840829983,266.54216679199453,left,0.2958792909994372,None,left,0.2958792909994372,0.2,0,266.56825591699453,266.5760906249998,266.5760906249998,266.5760906249998,266.5760906249998,268.55029891699814,1,0.42942095900070854,268.55703462499514,269.00143595799454,1,269.0015160829935,269.0080854169937,270.00580991699826,270.00027783299447,266.2407840829983,268.56318970799475,268.56318970799475,268.56318970799475,268.56318970799475,268.56318970799475,0.42942095900070854,None,,,,34003,001,2025-10-22_15h12.55.729,regret_experiment,2024.2.4,None,2,0.2,0.5,0.7,2025-10-22 15h13.10.949829 -0700,
56,0,56,up,0.3280195420011296,None,None,,,56,0,56,0,270.00580991699826,,,,,,,,,270.0007850829934,270.00580991699826,-0.0006945830027689226,270.9912074579988,57,2,0.2,0.5,0.7,270.9915146249987,271.00015041699953,271.00015041699953,271.00015041699953,271.00015041699953,271.33529137499863,up,0.3280195420011296,None,up,0.3280195420011296,0.5,1,271.3480610419938,271.3552515419942,271.3552515419942,271.3552515419942,271.3552515419942,273.3381546669989,NA,NA,273.33866479199787,273.3387079169988,None,273.3387653329992,273.3505633329987,274.3410185829998,274.33476279199385,271.00015041699953,,,,,,,,,,,34003,001,2025-10-22_15h12.55.729,regret_experiment,2024.2.4,None,2,0.2,0.5,0.7,2025-10-22 15h13.10.949829 -0700,
57,0,57,right,0.4686527920057415,None,None,,,57,0,57,0,274.3410185829998,,,,,,,,,274.3354348749999,274.3410185829998,0.0023835000029066578,275.33422941699973,58,2,0.2,0.5,0.7,275.33453424999607,275.3401684579949,275.3401684579949,275.3401684579949,275.3401684579949,275.8173933750004,right,0.4686527920057415,None,right,0.4686527920057415,0.7,1,275.8296916249965,275.8363084579978,275.8363084579978,275.8363084579978,275.8363084579978,277.8225066669984,NA,NA,277.8230088749988,277.82304183299857,None,277.8231219999943,277.83351754199975,278.82155316699937,278.8169614169965,275.3401684579949,,,,,,,,,,,34003,001,2025-10-22_15h12.55.729,regret_experiment,2024.2.4,None,2,0.2,0.5,0.7,2025-10-22 15h13.10.949829 -0700,
58,0,58,left,0.39375324999855366,None,1,0.5707955830002902,None,58,0,58,0,278.82155316699937,,,,,,,,,278.8172827919989,278.82155316699937,0.008937999999034218,279.8062379999974,59,2,0.2,0.5,0.7,279.8065482919992,279.82515916699776,279.82515916699776,279.82515916699776,279.82515916699776,280.22467383299954,left,0.39375324999855366,None,left,0.39375324999855366,0.2,0,280.237710292,280.2444833749978,280.2444833749978,280.2444833749978,280.2444833749978,282.233688332999,1,0.5707955830002902,282.24047241699736,282.82461874999717,1,282.82469874999515,282.83275920799497,283.8233316249971,283.8177970830002,279.8174231249941,282.2472018329936,282.2472018329936,282.2472018329936,282.2472018329936,282.2472018329936,0.5707955830002902,None,,,,34003,001,2025-10-22_15h12.55.729,regret_experiment,2024.2.4,None,2,0.2,0.5,0.7,2025-10-22 15h13.10.949829 -0700,
59,0,59,up,0.2978184590028832,None,1,0.5463253339985386,None,59,0,59,0,283.8233316249971,,,,,,,,,283.81855458299833,283.8233316249971,0.008915792001062073,284.80768724999507,60,2,0.2,0.5,0.7,284.8079479999942,284.8222426249995,284.8222426249995,284.8222426249995,284.8222426249995,285.1245723749962,up,0.2978184590028832,None,up,0.2978184590028832,0.5,0,285.1374440829968,285.1442680420005,285.1442680420005,285.1442680420005,285.1442680420005,287.1342060829993,1,0.5463253339985386,287.1431843329992,287.7020341249954,1,287.7021064579967,287.70924374999595,288.7441533749952,288.7009571669987,284.8164214169956,287.14986962499825,287.14986962499825,287.14986962499825,287.14986962499825,287.14986962499825,0.5463253339985386,None,,,,34003,001,2025-10-22_15h12.55.729,regret_experiment,2024.2.4,None,2,0.2,0.5,0.7,2025-10-22 15h13.10.949829 -0700,
,,,,,,,,,,,,,,,,,,,,,,,,,,,,,,,,,,,,,,,,,,,,,,,,,,,,,,,,,,,,,,,,,,,N/A,288.73459416699916,288.7441533749952,,,,,,,,,,,,
