thisN,thisTrialN,thisRepN,key_resp_1.keys,key_resp_1.rt,key_resp_1.duration,regret_key.keys,trials.thisRepN,trials.thisTrialN,trials.thisN,trials.thisIndex,thisRow.t,notes,begin_exp.started,begin.started,advance_key.started,begin_exp.stopped,advance_key.keys,advance_key.rt,advance_key.duration,Fixation.started,fixcross.started,etRecord.started,Fixation.stopped,trial_num,participant_cond,prob_left,prob_up,prob_right,Choice.started,tree1_img.started,tree2_img.started,tree3_img.started,key_resp_1.started,Choice.stopped,trials.key_resp_1.keys,trials.key_resp_1.rt,trials.key_resp_1.duration,choice_key,choice_rt,choice_prob,points,Feedback.started,appleImage.started,tree1.started,tree2.started,tree3.started,Feedback.stopped,regret_rating,regret_rt,RegretRating.started,RegretRating.stopped,trials.regret_key.keys,ITI.started,blank_screen.started,blank_screen.stopped,ITI.stopped,fixcross.stopped,avg_regret,EndScreen.started,end_display.started,participant,session,date,expName,psychopyVersion,frameRate,participant_cond,prob_left,prob_up,prob_right,expStart,
,,,,,,,,,,,,,0.05857229101820849,0.09159208301571198,0.09159208301571198,23.65479908301495,space,23.560465459013358,None,,,,,,0,0.7,0.5,0.2,,,,,,,,,,,,,,,,,,,,,,,,,,,,,,,,,34054,001,2025-11-07_12h26.41.707,regret_experiment,2024.2.4,121.35909957429163,0,0.7,0.5,0.2,2025-11-07 12h29.53.644997 -0800,
0,0,0,left,0.7837877919955645,None,None,0,0,0,0,24.20865445799427,,,,,,,,,23.663257540989434,24.20865445799427,0.008376959012821317,24.66329570801463,1,0,0.7,0.5,0.2,24.663810083002318,24.676373458001763,24.676373458001763,24.676373458001763,24.676373458001763,25.464646125008585,left,0.7837877919955645,None,left,0.7837877919955645,0.7,0,25.507955665991176,25.523002166009974,25.523002166009974,25.523002166009974,25.523002166009974,27.467964707990177,NA,NA,27.468527666002046,27.468588290998014,None,27.46863337501418,27.479155000008177,28.468236624990823,28.463341291004326,,,,,34054,001,2025-11-07_12h26.41.707,regret_experiment,2024.2.4,121.35909957429163,0,0.7,0.5,0.2,2025-11-07 12h29.53.644997 -0800,
1,0,1,up,0.7963952089776285,None,None,1,0,1,0,28.468236624990823,,,,,,,,,28.463714457990136,28.468236624990823,-0.0002902080013882369,29.451755957998103,2,0,0.7,0.5,0.2,29.452002790989354,29.462838541017845,29.462838541017845,29.462838541017845,29.462838541017845,30.26372616601293,up,0.7963952089776285,None,up,0.7963952089776285,0.5,0,30.278260999999475,30.286581541004125,30.286581541004125,30.286581541004125,30.286581541004125,32.268173457996454,NA,NA,32.268939208006486,32.269036790996324,None,32.26914954101085,32.27938724998967,33.26777333300561,33.26275379100116,29.462838541017845,,,,34054,001,2025-11-07_12h26.41.707,regret_experiment,2024.2.4,121.35909957429163,0,0.7,0.5,0.2,2025-11-07 12h29.53.644997 -0800,
2,0,2,left,0.3653030830028001,None,None,2,0,2,0,33.26777333300561,,,,,,,,,33.263114916015184,33.26777333300561,0.010391499992692843,34.252402749989415,3,0,0.7,0.5,0.2,34.25268895798945,34.261490000004414,34.261490000004414,34.261490000004414,34.261490000004414,34.63046625000425,left,0.3653030830028001,None,left,0.3653030830028001,0.7,1,34.64382383300108,34.650529915990774,34.650529915990774,34.650529915990774,34.650529915990774,36.63530154101318,NA,NA,36.63586637499975,36.63590137500432,None,36.635948957991786,36.64602812498924,37.63579116601613,37.62947520799935,34.261490000004414,,,,34054,001,2025-11-07_12h26.41.707,regret_experiment,2024.2.4,121.35909957429163,0,0.7,0.5,0.2,2025-11-07 12h29.53.644997 -0800,
3,0,3,right,0.5912494160002097,None,None,3,0,3,0,37.63579116601613,,,,,,,,,37.62995741600753,37.63579116601613,-2.9916001949459314e-05,38.61943466600496,4,0,0.7,0.5,0.2,38.619809166004416,38.62869216600666,38.62869216600666,38.62869216600666,38.62869216600666,39.22989329099073,right,0.5912494160002097,None,right,0.5912494160002097,0.2,0,39.24302562500816,39.25118341599591,39.25118341599591,39.25118341599591,39.25118341599591,41.235572666017106,NA,NA,41.23617083299905,41.23621370800538,None,41.236315707996255,41.245674666017294,42.235791415994754,42.230012624990195,38.62869216600666,,,,34054,001,2025-11-07_12h26.41.707,regret_experiment,2024.2.4,121.35909957429163,0,0.7,0.5,0.2,2025-11-07 12h29.53.644997 -0800,
4,0,4,right,0.40700295800343156,None,None,4,0,4,0,42.235791415994754,,,,,,,,,42.23082737499499,42.235791415994754,-0.00036733399610966444,43.229712750006,5,0,0.7,0.5,0.2,43.23026279101032,43.23571083301795,43.23571083301795,43.23571083301795,43.23571083301795,43.64700012499816,right,0.40700295800343156,None,right,0.40700295800343156,0.2,0,43.661596749996534,43.668926874990575,43.668926874990575,43.668926874990575,43.668926874990575,45.65261754099629,NA,NA,45.65315833300701,45.6531909579935,None,45.653238583006896,45.66176925000036,46.65236437501153,46.6461697909981,43.23571083301795,,,,34054,001,2025-11-07_12h26.41.707,regret_experiment,2024.2.4,121.35909957429163,0,0.7,0.5,0.2,2025-11-07 12h29.53.644997 -0800,
5,0,5,left,0.2713614999956917,None,None,5,0,5,0,46.65236437501153,,,,,,,,,46.64698733299156,46.65236437501153,-0.0007668330217711627,47.64540075001423,6,0,0.7,0.5,0.2,47.64564566599438,47.650539541005855,47.650539541005855,47.650539541005855,47.650539541005855,47.929603541007964,left,0.2713614999956917,None,left,0.2713614999956917,0.7,0,47.942423166008666,47.9493113750068,47.9493113750068,47.9493113750068,47.9493113750068,49.93569916600245,NA,NA,49.936329707998084,49.936365958012175,None,49.93642466599704,49.945381416007876,50.933608999999706,50.928552083001705,47.650539541005855,,,,34054,001,2025-11-07_12h26.41.707,regret_experiment,2024.2.4,121.35909957429163,0,0.7,0.5,0.2,2025-11-07 12h29.53.644997 -0800,
6,0,6,up,0.6788048750022426,None,None,6,0,6,0,50.933608999999706,,,,,,,,,50.9289351660118,50.933608999999706,0.0082893330254592,51.91726191600901,7,0,0.7,0.5,0.2,51.91751770800329,51.93512679100968,51.93512679100968,51.93512679100968,51.93512679100968,52.62026329099899,up,0.6788048750022426,None,up,0.6788048750022426,0.5,0,52.63631970799179,52.645757791004144,52.645757791004144,52.645757791004144,52.645757791004144,54.62869454099564,NA,NA,54.62913345801644,54.629176207992714,None,54.629266583011486,54.63406787501299,55.62836870801402,55.617776083003264,51.928690250002546,,,,34054,001,2025-11-07_12h26.41.707,regret_experiment,2024.2.4,121.35909957429163,0,0.7,0.5,0.2,2025-11-07 12h29.53.644997 -0800,
7,0,7,up,0.5906049170007464,None,None,7,0,7,0,55.62836870801402,,,,,,,,,55.61817274999339,55.62836870801402,-0.0008184580074157566,56.61248029099079,8,0,0.7,0.5,0.2,56.6130217910104,56.62768045801204,56.62768045801204,56.62768045801204,56.62768045801204,57.21987370800343,up,0.5906049170007464,None,up,0.5906049170007464,0.5,0,57.23350825000671,57.24056350000319,57.24056350000319,57.24056350000319,57.24056350000319,59.2281676660059,NA,NA,59.22855550001259,59.2286007910152,None,59.22864729099092,59.23293116601417,60.23390062499675,60.228780791017925,56.61717312500696,,,,34054,001,2025-11-07_12h26.41.707,regret_experiment,2024.2.4,121.35909957429163,0,0.7,0.5,0.2,2025-11-07 12h29.53.644997 -0800,
8,0,8,left,1.2010392500087619,None,None,8,0,8,0,60.23390062499675,,,,,,,,,60.22913941601291,60.23390062499675,0.0005264999927021563,61.22836237499723,9,0,0.7,0.5,0.2,61.228604125004495,61.233263666013954,61.233263666013954,61.233263666013954,61.233263666013954,62.44594704100746,left,1.2010392500087619,None,left,1.2010392500087619,0.7,0,62.46097041599569,62.4688300830021,62.4688300830021,62.4688300830021,62.4688300830021,64.44980274999398,NA,NA,64.45073404099094,64.4508306249918,None,64.4509721659997,64.4607820000092,65.44995316601126,65.44496587500907,61.233263666013954,,,,34054,001,2025-11-07_12h26.41.707,regret_experiment,2024.2.4,121.35909957429163,0,0.7,0.5,0.2,2025-11-07 12h29.53.644997 -0800,
9,0,9,left,0.35636045900173485,None,None,9,0,9,0,65.44995316601126,,,,,,,,,65.4453577910026,65.44995316601126,-0.0008610420045442879,66.43552670799545,10,0,0.7,0.5,0.2,66.43609475000994,66.44480066600954,66.44480066600954,66.44480066600954,66.44480066600954,66.81241975000012,left,0.35636045900173485,None,left,0.35636045900173485,0.7,0,66.8257312909991,66.83440958301071,66.83440958301071,66.83440958301071,66.83440958301071,68.81694487499772,NA,NA,68.81747091599391,68.81752004098962,None,68.8175678330008,68.82737404099316,69.81814837499405,69.8118620000023,66.44480066600954,,,,34054,001,2025-11-07_12h26.41.707,regret_experiment,2024.2.4,121.35909957429163,0,0.7,0.5,0.2,2025-11-07 12h29.53.644997 -0800,
10,0,10,up,0.3697680000041146,None,None,10,0,10,0,69.81814837499405,,,,,,,,,69.81256166601088,69.81814837499405,0.0007317910203710198,70.81105899999966,11,0,0.7,0.5,0.2,70.81129529100144,70.81681745799142,70.81681745799142,70.81681745799142,70.81681745799142,71.19585774998995,up,0.3697680000041146,None,up,0.3697680000041146,0.5,1,71.2127997080097,71.22211287499522,71.22211287499522,71.22211287499522,71.22211287499522,73.1994705410034,NA,NA,73.19998337500147,73.20003291600733,None,73.20008258300368,73.20973766600946,74.20030845800648,74.1940022080089,70.81681745799142,,,,34054,001,2025-11-07_12h26.41.707,regret_experiment,2024.2.4,121.35909957429163,0,0.7,0.5,0.2,2025-11-07 12h29.53.644997 -0800,
11,0,11,left,0.32994679201510735,None,None,11,0,11,0,74.20030845800648,,,,,,,,,74.19453562499257,74.20030845800648,0.0003438749990891665,75.19394241599366,12,0,0.7,0.5,0.2,75.1941693330009,75.19889212501585,75.19889212501585,75.19889212501585,75.19889212501585,75.5365978750051,left,0.32994679201510735,None,left,0.32994679201510735,0.7,1,75.54903833300341,75.55621775001055,75.55621775001055,75.55621775001055,75.55621775001055,77.54409866599599,NA,NA,77.544536625006,77.54457154101692,None,77.54463670801488,77.54925304101198,78.54517612501513,78.53410529100802,75.19889212501585,,,,34054,001,2025-11-07_12h26.41.707,regret_experiment,2024.2.4,121.35909957429163,0,0.7,0.5,0.2,2025-11-07 12h29.53.644997 -0800,
12,0,12,up,0.36989600001834333,None,None,12,0,12,0,78.54517612501513,,,,,,,,,78.5344188750023,78.54517612501513,0.0006461669981945306,79.53282045800006,13,0,0.7,0.5,0.2,79.53309262500261,79.54411495800014,79.54411495800014,79.54411495800014,79.54411495800014,79.91874074999942,up,0.36989600001834333,None,up,0.36989600001834333,0.5,1,79.93562145798933,79.94547854099073,79.94547854099073,79.94547854099073,79.94547854099073,81.92675583300297,NA,NA,81.92717662500218,81.92722737501026,None,81.92728870801511,81.9317219160148,82.92714287500712,82.91596479099826,79.54411495800014,,,,34054,001,2025-11-07_12h26.41.707,regret_experiment,2024.2.4,121.35909957429163,0,0.7,0.5,0.2,2025-11-07 12h29.53.644997 -0800,
13,0,13,right,0.3490081669879146,None,None,13,0,13,0,82.92714287500712,,,,,,,,,82.91633470801753,82.92714287500712,-5.0834001740440726e-05,83.9103715410165,14,0,0.7,0.5,0.2,83.91067279101117,83.9159750000108,83.9159750000108,83.9159750000108,83.9159750000108,84.26863887501531,right,0.3490081669879146,None,right,0.3490081669879146,0.2,1,84.28402900000219,84.2917479579919,84.2917479579919,84.2917479579919,84.2917479579919,86.27708550001262,NA,NA,86.27788404101739,86.27798841599724,None,86.27810262501589,86.28362595799263,87.28288733301451,87.27729629099485,83.9159750000108,,,,34054,001,2025-11-07_12h26.41.707,regret_experiment,2024.2.4,121.35909957429163,0,0.7,0.5,0.2,2025-11-07 12h29.53.644997 -0800,
14,0,14,right,0.5132224999833852,None,None,14,0,14,0,87.28288733301451,,,,,,,,,87.27766745799454,87.28288733301451,-0.0003788339963648468,88.27619045801111,15,0,0.7,0.5,0.2,88.27643629099475,88.28135800000746,88.28135800000746,88.28135800000746,88.28135800000746,88.80033754100441,right,0.5132224999833852,None,right,0.5132224999833852,0.2,1,88.81374800001504,88.82113050000044,88.82113050000044,88.82113050000044,88.82113050000044,90.81043195800157,NA,NA,90.81080416601617,90.8108392500144,None,90.81088800000725,90.81662795800366,91.8176147500053,91.81101858301554,88.28135800000746,,,,34054,001,2025-11-07_12h26.41.707,regret_experiment,2024.2.4,121.35909957429163,0,0.7,0.5,0.2,2025-11-07 12h29.53.644997 -0800,
15,0,15,up,0.3845657080237288,None,None,15,0,15,0,91.8176147500053,,,,,,,,,91.81177808300708,91.8176147500053,0.0009500000160187483,92.81034966598963,16,0,0.7,0.5,0.2,92.8105967080046,92.81575533299474,92.81575533299474,92.81575533299474,92.81575533299474,93.21086320799077,up,0.3845657080237288,None,up,0.3845657080237288,0.5,1,93.22299800001201,93.2297717499896,93.2297717499896,93.2297717499896,93.2297717499896,95.21509562499705,NA,NA,95.21561524999561,95.21564891599701,None,95.21569812501548,95.2259100000083,96.21483612500015,96.20983974999399,92.81575533299474,,,,34054,001,2025-11-07_12h26.41.707,regret_experiment,2024.2.4,121.35909957429163,0,0.7,0.5,0.2,2025-11-07 12h29.53.644997 -0800,
16,0,16,left,0.6891478750039823,None,None,16,0,16,0,96.21483612500015,,,,,,,,,96.21020116601721,96.21483612500015,-0.0007494580058846623,97.1983725829923,17,0,0.7,0.5,0.2,97.19861983301234,97.21515004101093,97.21515004101093,97.21515004101093,97.21515004101093,97.91098887499538,left,0.6891478750039823,None,left,0.6891478750039823,0.7,0,97.9248545000155,97.93187358300202,97.93187358300202,97.93187358300202,97.93187358300202,99.91463233300601,NA,NA,99.91520358299022,99.91525183300837,None,99.91530212500948,99.92622037499677,100.91489479099982,100.9099373749923,97.2097657500126,,,,34054,001,2025-11-07_12h26.41.707,regret_experiment,2024.2.4,121.35909957429163,0,0.7,0.5,0.2,2025-11-07 12h29.53.644997 -0800,
17,0,17,right,0.29620983300264925,None,None,17,0,17,0,100.91489479099982,,,,,,,,,100.91024175001075,100.91489479099982,-0.00021670799469575286,101.89817374999984,18,0,0.7,0.5,0.2,101.89844454100239,101.91485320799984,101.91485320799984,101.91485320799984,101.91485320799984,102.21569075001753,right,0.29620983300264925,None,right,0.29620983300264925,0.2,0,102.2301522080088,102.23857233300805,102.23857233300805,102.23857233300805,102.23857233300805,104.22663083299994,NA,NA,104.22758091599098,104.2276996250148,None,104.22782683299738,104.23362579100649,105.23313245800091,105.2264147910173,101.90945633299998,,,,34054,001,2025-11-07_12h26.41.707,regret_experiment,2024.2.4,121.35909957429163,0,0.7,0.5,0.2,2025-11-07 12h29.53.644997 -0800,
18,0,18,left,0.27314154198393226,None,None,18,0,18,0,105.23313245800091,,,,,,,,,105.22700275000534,105.23313245800091,-0.0007278330158442259,106.22599554099725,19,0,0.7,0.5,0.2,106.22627320801257,106.23134033300448,106.23134033300448,106.23134033300448,106.23134033300448,106.51075387501623,left,0.27314154198393226,None,left,0.27314154198393226,0.7,1,106.52629370801151,106.53357537501142,106.53357537501142,106.53357537501142,106.53357537501142,108.51591491600266,NA,NA,108.51648266598932,108.51651766599389,None,108.51656666601775,108.52594058300019,109.52545383299002,109.51407974999165,106.23134033300448,,,,34054,001,2025-11-07_12h26.41.707,regret_experiment,2024.2.4,121.35909957429163,0,0.7,0.5,0.2,2025-11-07 12h29.53.644997 -0800,
19,0,19,up,0.4746691249893047,None,None,19,0,19,0,109.52545383299002,,,,,,,,,109.51440854099928,109.52545383299002,0.00896412500878796,110.5130457500054,20,0,0.7,0.5,0.2,110.51330241601681,110.52593591599725,110.52593591599725,110.52593591599725,110.52593591599725,111.01060112501727,up,0.4746691249893047,None,up,0.4746691249893047,0.5,0,111.02499995799735,111.0329441250069,111.0329441250069,111.0329441250069,111.0329441250069,113.01433129099314,NA,NA,113.0149096660025,113.01495375001105,None,113.01503329101251,113.02562945801765,114.01620916600223,114.01001466601156,110.52593591599725,,,,34054,001,2025-11-07_12h26.41.707,regret_experiment,2024.2.4,121.35909957429163,0,0.7,0.5,0.2,2025-11-07 12h29.53.644997 -0800,
20,0,20,left,0.6174245830043219,None,None,20,0,20,0,114.01620916600223,,,,,,,,,114.01085479100584,114.01620916600223,0.0013066669926047325,115.00900954101235,21,0,0.7,0.5,0.2,115.00939391599968,115.01448954100488,115.01448954100488,115.01448954100488,115.01448954100488,115.6433708750119,left,0.6174245830043219,None,left,0.6174245830043219,0.7,1,115.65515825001057,115.66291858299519,115.66291858299519,115.66291858299519,115.66291858299519,117.64694058301393,NA,NA,117.64763491600752,117.64772974999505,None,117.64784358299221,117.6581446659984,118.64760450000176,118.64258183300262,115.01448954100488,,,,34054,001,2025-11-07_12h26.41.707,regret_experiment,2024.2.4,121.35909957429163,0,0.7,0.5,0.2,2025-11-07 12h29.53.644997 -0800,
21,0,21,left,0.3687627920007799,None,None,21,0,21,0,118.64760450000176,,,,,,,,,118.64289462499437,118.64760450000176,-0.000106791005237028,119.63192004099255,22,0,0.7,0.5,0.2,119.6321636660141,119.64167874999112,119.64167874999112,119.64167874999112,119.64167874999112,120.01566100001219,left,0.3687627920007799,None,left,0.3687627920007799,0.7,1,120.02871054099523,120.03572220800561,120.03572220800561,120.03572220800561,120.03572220800561,122.02482854100526,NA,NA,122.02531045800424,122.02534991601715,None,122.02540099999169,122.02989287499804,123.02528116601752,123.01530462500523,119.64167874999112,,,,34054,001,2025-11-07_12h26.41.707,regret_experiment,2024.2.4,121.35909957429163,0,0.7,0.5,0.2,2025-11-07 12h29.53.644997 -0800,
22,0,22,left,0.4289908749924507,None,None,22,0,22,0,123.02528116601752,,,,,,,,,123.01562454100349,123.02528116601752,-4.562499816529453e-05,124.01417295800638,23,0,0.7,0.5,0.2,124.01441400000476,124.02515829101321,124.02515829101321,124.02515829101321,124.02515829101321,124.46087091599475,left,0.4289908749924507,None,left,0.4289908749924507,0.7,0,124.47413616601261,124.48101462499471,124.48101462499471,124.48101462499471,124.48101462499471,126.46469508300652,NA,NA,126.46522362501128,126.4652684580069,None,126.46531937501277,126.47439004099579,127.46351425000466,127.45867641599034,124.02515829101321,,,,34054,001,2025-11-07_12h26.41.707,regret_experiment,2024.2.4,121.35909957429163,0,0.7,0.5,0.2,2025-11-07 12h29.53.644997 -0800,
23,0,23,right,0.09731308399932459,None,None,23,0,23,0,127.46351425000466,,,,,,,,,127.4589957910066,127.46351425000466,0.008431041002040729,128.4466995410039,24,0,0.7,0.5,0.2,128.44692350001424,128.46318033299758,128.46318033299758,128.46318033299758,128.46318033299758,128.56455879099667,right,0.09731308399932459,None,right,0.09731308399932459,0.2,0,128.57753037501243,128.58429762499873,128.58429762499873,128.58429762499873,128.58429762499873,130.57526341601624,NA,NA,130.57596300001023,130.5760541250056,None,130.57616470800713,130.58159187500132,131.58074299999862,131.57521608300158,128.45763233301113,,,,34054,001,2025-11-07_12h26.41.707,regret_experiment,2024.2.4,121.35909957429163,0,0.7,0.5,0.2,2025-11-07 12h29.53.644997 -0800,
24,0,24,up,0.4562072080152575,None,None,24,0,24,0,131.58074299999862,,,,,,,,,131.57553816601285,131.58074299999862,-0.0005710830155294389,132.57635895800195,25,0,0.7,0.5,0.2,132.57668062500306,132.581757958018,132.581757958018,132.581757958018,132.581757958018,133.04297154099913,up,0.4562072080152575,None,up,0.4562072080152575,0.5,0,133.05606224999065,133.06157695801812,133.06157695801812,133.06157695801812,133.06157695801812,135.04817483300576,NA,NA,135.04875225000433,135.04880658301408,None,135.04890754100052,135.05734304100042,136.0484866249899,136.0423866659985,132.581757958018,,,,34054,001,2025-11-07_12h26.41.707,regret_experiment,2024.2.4,121.35909957429163,0,0.7,0.5,0.2,2025-11-07 12h29.53.644997 -0800,
25,0,25,up,0.47729149999213405,None,None,25,0,25,0,136.0484866249899,,,,,,,,,136.04327154101338,136.0484866249899,-0.0002817919885274023,137.04161454099813,26,0,0.7,0.5,0.2,137.04190745801316,137.04976758299745,137.04976758299745,137.04976758299745,137.04976758299745,137.5351487910084,up,0.47729149999213405,None,up,0.47729149999213405,0.5,1,137.55008395799086,137.56119641600526,137.56119641600526,137.56119641600526,137.56119641600526,139.53998741600662,NA,NA,139.54063695800141,139.5406906660064,None,139.54075350001222,139.54540037500556,140.5404480000143,140.5304725000169,137.04976758299745,,,,34054,001,2025-11-07_12h26.41.707,regret_experiment,2024.2.4,121.35909957429163,0,0.7,0.5,0.2,2025-11-07 12h29.53.644997 -0800,
26,0,26,left,0.29908716698992066,None,None,26,0,26,0,140.5404480000143,,,,,,,,,140.53088166599628,140.5404480000143,-0.0002228330122306943,141.52381033299025,27,0,0.7,0.5,0.2,141.52412254101364,141.53040154100745,141.53040154100745,141.53040154100745,141.53040154100745,141.83425533300033,left,0.29908716698992066,None,left,0.29908716698992066,0.7,1,141.85531679101405,141.8642965000181,141.8642965000181,141.8642965000181,141.8642965000181,143.84043537499383,NA,NA,143.8408548750158,143.84088912501466,None,143.84094691599603,143.8455921249988,144.8407797079999,144.83084329101257,141.53040154100745,,,,34054,001,2025-11-07_12h26.41.707,regret_experiment,2024.2.4,121.35909957429163,0,0.7,0.5,0.2,2025-11-07 12h29.53.644997 -0800,
27,0,27,up,0.42841629197937436,None,None,27,0,27,0,144.8407797079999,,,,,,,,,144.83117237500846,144.8407797079999,-8.58750136103481e-05,145.82886125001824,28,0,0.7,0.5,0.2,145.82915595799568,145.84069929100224,145.84069929100224,145.84069929100224,145.84069929100224,146.2752211659972,up,0.42841629197937436,None,up,0.42841629197937436,0.5,1,146.2879850830068,146.2946186659974,146.2946186659974,146.2946186659974,146.2946186659974,148.28095683301217,NA,NA,148.281497916003,148.2815312909952,None,148.28157904100954,148.29022354100016,149.27969804100576,149.27462087501772,145.84069929100224,,,,34054,001,2025-11-07_12h26.41.707,regret_experiment,2024.2.4,121.35909957429163,0,0.7,0.5,0.2,2025-11-07 12h29.53.644997 -0800,
28,0,28,left,0.7429126249917317,None,None,28,0,28,0,149.27969804100576,,,,,,,,,149.27494620799553,149.27969804100576,0.009060082986252382,150.26359020799282,29,0,0.7,0.5,0.2,150.26383974999771,150.2785757080128,150.2785757080128,150.2785757080128,150.2785757080128,151.0247932909988,left,0.7429126249917317,None,left,0.7429126249917317,0.7,1,151.0368160410144,151.0433133750048,151.0433133750048,151.0433133750048,151.0433133750048,153.03096187501797,NA,NA,153.0315419580147,153.0315907910117,None,153.03167845800635,153.03986608301057,154.0303610409901,154.02407808299176,150.27269929100294,,,,34054,001,2025-11-07_12h26.41.707,regret_experiment,2024.2.4,121.35909957429163,0,0.7,0.5,0.2,2025-11-07 12h29.53.644997 -0800,
29,0,29,right,0.3899157499836292,None,None,29,0,29,0,154.0303610409901,,,,,,,,,154.02476395800477,154.0303610409901,0.008826292003504932,155.0245270410087,30,0,0.7,0.5,0.2,155.02525720800622,155.03095874999417,155.03095874999417,155.03095874999417,155.03095874999417,155.42473200001405,right,0.3899157499836292,None,right,0.3899157499836292,0.2,0,155.43853400001535,155.44559124999796,155.44559124999796,155.44559124999796,155.44559124999796,157.42908604099648,NA,NA,157.42966920800973,157.42970870799036,None,157.42976533301407,157.44067041599192,158.44016304099932,158.42818770799204,155.03095874999417,,,,34054,001,2025-11-07_12h26.41.707,regret_experiment,2024.2.4,121.35909957429163,0,0.7,0.5,0.2,2025-11-07 12h29.53.644997 -0800,
30,0,30,up,0.5509596659976523,None,None,30,0,30,0,158.44016304099932,,,,,,,,,158.42856895801378,158.44016304099932,0.010477583011379465,159.4246448329941,31,0,0.7,0.5,0.2,159.4249539579905,159.4301206660166,159.4301206660166,159.4301206660166,159.4301206660166,159.99124999999185,up,0.5509596659976523,None,up,0.5509596659976523,0.5,1,160.00378954099142,160.01054812499206,160.01054812499206,160.01054812499206,160.01054812499206,161.99522400001297,NA,NA,161.99572283300222,161.99575945799006,None,161.99581141601084,162.00681779099978,162.99601800000528,162.99059649999253,159.4301206660166,,,,34054,001,2025-11-07_12h26.41.707,regret_experiment,2024.2.4,121.35909957429163,0,0.7,0.5,0.2,2025-11-07 12h29.53.644997 -0800,
31,0,31,left,0.054509124980540946,None,None,31,0,31,0,162.99601800000528,,,,,,,,,162.99093674999312,162.99601800000528,0.00033054198138415813,163.97900687501533,32,0,0.7,0.5,0.2,163.97925170799135,163.99042920800275,163.99042920800275,163.99042920800275,163.99042920800275,164.04661370799295,left,0.054509124980540946,None,left,0.054509124980540946,0.7,0,164.0600937080162,164.0673294159933,164.0673294159933,164.0673294159933,164.0673294159933,166.0469640000083,NA,NA,166.04750354099087,166.04754795800545,None,166.0475945410144,166.05601895801374,167.0460922080092,167.04053204099182,163.99042920800275,,,,34054,001,2025-11-07_12h26.41.707,regret_experiment,2024.2.4,121.35909957429163,0,0.7,0.5,0.2,2025-11-07 12h29.53.644997 -0800,
32,0,32,right,0.1444189999892842,None,None,32,0,32,0,167.0460922080092,,,,,,,,,167.04110183299053,167.0460922080092,0.009069041989278048,168.04035825000028,33,0,0.7,0.5,0.2,168.04064645801554,168.04669254101464,168.04669254101464,168.04669254101464,168.04669254101464,168.1981727500097,right,0.1444189999892842,None,right,0.1444189999892842,0.2,0,168.21248950000154,168.21977804100607,168.21977804100607,168.21977804100607,168.21977804100607,170.20633629101212,NA,NA,170.20728758300538,170.20739970801515,None,170.20756741601508,170.21281283299322,171.4447715000133,171.20661220801412,168.04669254101464,,,,34054,001,2025-11-07_12h26.41.707,regret_experiment,2024.2.4,121.35909957429163,0,0.7,0.5,0.2,2025-11-07 12h29.53.644997 -0800,
33,0,33,up,0.4707033330050763,None,None,33,0,33,0,171.4447715000133,,,,,,,,,171.2069555830094,171.4447715000133,-0.0005138329870533198,172.21017058301368,34,0,0.7,0.5,0.2,172.21071379099158,172.22295087500243,172.22295087500243,172.22295087500243,172.22295087500243,172.69683600001736,up,0.4707033330050763,None,up,0.4707033330050763,0.5,0,172.71091374999378,172.72097437499906,172.72097437499906,172.72097437499906,172.72097437499906,174.706537666003,NA,NA,174.70696725000744,174.70701124999323,None,174.70706470799632,174.71482749999268,175.71191608300433,175.70613237499492,,,,,34054,001,2025-11-07_12h26.41.707,regret_experiment,2024.2.4,121.35909957429163,0,0.7,0.5,0.2,2025-11-07 12h29.53.644997 -0800,
34,0,34,left,0.4632188339892309,None,None,34,0,34,0,175.71191608300433,,,,,,,,,175.7069094160106,175.71191608300433,-0.00011604200699366629,176.70674583301297,35,0,0.7,0.5,0.2,176.70724441600032,176.71272966600372,176.71272966600372,176.71272966600372,176.71272966600372,177.17943454100168,left,0.4632188339892309,None,left,0.4632188339892309,0.7,0,177.19333437501336,177.20047866599634,177.20047866599634,177.20047866599634,177.20047866599634,179.17981129101827,NA,NA,179.18034741599695,179.1803819159977,None,179.18044045800343,179.189184457995,180.17788000000292,180.17292333301157,176.71272966600372,,,,34054,001,2025-11-07_12h26.41.707,regret_experiment,2024.2.4,121.35909957429163,0,0.7,0.5,0.2,2025-11-07 12h29.53.644997 -0800,
35,0,35,up,0.5055339579994325,None,None,35,0,35,0,180.17788000000292,,,,,,,,,180.17326729101478,180.17788000000292,0.007703125011175871,181.17256270800135,36,0,0.7,0.5,0.2,181.1728059159941,181.17797591601266,181.17797591601266,181.17797591601266,181.17797591601266,181.69009033299517,up,0.5055339579994325,None,up,0.5055339579994325,0.5,1,181.70433475001482,181.7116642910114,181.7116642910114,181.7116642910114,181.7116642910114,183.6943957080075,NA,NA,183.69490870801383,183.694964291004,None,183.69502266601194,183.70571079099318,184.70524562499486,184.69355125000584,181.17797591601266,,,,34054,001,2025-11-07_12h26.41.707,regret_experiment,2024.2.4,121.35909957429163,0,0.7,0.5,0.2,2025-11-07 12h29.53.644997 -0800,
36,0,36,left,0.26726466600666754,None,None,36,0,36,0,184.70524562499486,,,,,,,,,184.69385391598917,184.70524562499486,0.010338416002923623,185.69007633300498,37,0,0.7,0.5,0.2,185.69051354099065,185.69658183300635,185.69658183300635,185.69658183300635,185.69658183300635,185.97502045799047,left,0.26726466600666754,None,left,0.26726466600666754,0.7,1,185.98720062500797,185.99422908300767,185.99422908300767,185.99422908300767,185.99422908300767,187.9791478330153,NA,NA,187.9797062080179,187.97973766599898,None,187.97978420800064,187.98888958300813,188.98807412499445,188.9759678330156,185.69658183300635,,,,34054,001,2025-11-07_12h26.41.707,regret_experiment,2024.2.4,121.35909957429163,0,0.7,0.5,0.2,2025-11-07 12h29.53.644997 -0800,
37,0,37,up,0.48294979199999943,None,None,37,0,37,0,188.98807412499445,,,,,,,,,188.976330333011,188.98807412499445,0.008377167017897591,189.9715590410051,38,0,0.7,0.5,0.2,189.97180120801204,189.97699166601524,189.97699166601524,189.97699166601524,189.97699166601524,190.46268883300945,up,0.48294979199999943,None,up,0.48294979199999943,0.5,1,190.47584387499955,190.48448949999874,190.48448949999874,190.48448949999874,190.48448949999874,192.47154979099287,NA,NA,192.47199916600948,192.47203720800462,None,192.47211687499657,192.47683879101533,193.47183941601543,193.46086308298982,189.97699166601524,,,,34054,001,2025-11-07_12h26.41.707,regret_experiment,2024.2.4,121.35909957429163,0,0.7,0.5,0.2,2025-11-07 12h29.53.644997 -0800,
38,0,38,left,0.5983435830275994,None,None,38,0,38,0,193.47183941601543,,,,,,,,,193.46160145799513,193.47183941601543,-0.00018524998449720442,194.45557316599297,39,0,0.7,0.5,0.2,194.455820416013,194.4609419160115,194.4609419160115,194.4609419160115,194.4609419160115,195.06222925000475,left,0.5983435830275994,None,left,0.5983435830275994,0.7,1,195.07621625001775,195.08308308300911,195.08308308300911,195.08308308300911,195.08308308300911,197.0719761250075,NA,NA,197.0729471250088,197.07306462500128,None,197.07318287499947,197.0782029160182,198.07614829100203,198.07118395800353,194.4609419160115,,,,34054,001,2025-11-07_12h26.41.707,regret_experiment,2024.2.4,121.35909957429163,0,0.7,0.5,0.2,2025-11-07 12h29.53.644997 -0800,
39,0,39,left,0.48532637499738485,None,None,39,0,39,0,198.07614829100203,,,,,,,,,198.07153929100605,198.07614829100203,0.003106709016719833,199.0596801250067,40,0,0.7,0.5,0.2,199.05999025001074,199.07121908300905,199.07121908300905,199.07121908300905,199.07121908300905,199.5615970409999,left,0.48532637499738485,None,left,0.48532637499738485,0.7,1,199.57508300000336,199.5822286249895,199.5822286249895,199.5822286249895,199.5822286249895,201.57114941600594,NA,NA,201.5719350829895,201.572052833013,None,201.57217525001033,201.57775558301364,202.57774733300903,202.5720218750066,199.07121908300905,,,,34054,001,2025-11-07_12h26.41.707,regret_experiment,2024.2.4,121.35909957429163,0,0.7,0.5,0.2,2025-11-07 12h29.53.644997 -0800,
40,0,40,up,0.5033490000059828,None,None,40,0,40,0,202.57774733300903,,,,,,,,,202.57240466601797,202.57774733300903,0.00028450001263991,203.57263141599833,41,0,0.7,0.5,0.2,203.573177415994,203.57881245799945,203.57881245799945,203.57881245799945,203.57881245799945,204.08924804101116,up,0.5033490000059828,None,up,0.5033490000059828,0.5,1,204.10155804100214,204.1093814999913,204.1093814999913,204.1093814999913,204.1093814999913,206.09367741600727,NA,NA,206.0942796659947,206.0943145409983,None,206.09436958300648,206.1040719159937,207.0949403750128,207.0886914159928,203.57881245799945,,,,34054,001,2025-11-07_12h26.41.707,regret_experiment,2024.2.4,121.35909957429163,0,0.7,0.5,0.2,2025-11-07 12h29.53.644997 -0800,
41,0,41,left,0.31192687500151806,None,None,41,0,41,0,207.0949403750128,,,,,,,,,207.08930408299784,207.0949403750128,0.0006937079888302833,208.0880212910124,42,0,0.7,0.5,0.2,208.08829633300775,208.09345491600106,208.09345491600106,208.09345491600106,208.09345491600106,208.41200775001198,left,0.31192687500151806,None,left,0.31192687500151806,0.7,1,208.42360933299642,208.43020883301506,208.43020883301506,208.43020883301506,208.43020883301506,210.42152720800368,NA,NA,210.4222056250146,210.4223313750117,None,210.4224488750042,210.42817512500915,211.42936262500007,211.42222212499473,208.09345491600106,,,,34054,001,2025-11-07_12h26.41.707,regret_experiment,2024.2.4,121.35909957429163,0,0.7,0.5,0.2,2025-11-07 12h29.53.644997 -0800,
42,0,42,up,0.6229670830070972,None,None,42,0,42,0,211.42936262500007,,,,,,,,,211.42345020800713,211.42936262500007,0.0010907079849857837,212.42114679099177,43,0,0.7,0.5,0.2,212.4214198749978,212.42655670800013,212.42655670800013,212.42655670800013,212.42655670800013,213.05543066599057,up,0.6229670830070972,None,up,0.6229670830070972,0.5,0,213.06893295800546,213.07564679099596,213.07564679099596,213.07564679099596,213.07564679099596,215.06078904101742,NA,NA,215.06130741600646,215.06133566601784,None,215.0613860829908,215.07087612501346,216.05942725000205,216.05458229099168,212.42655670800013,,,,34054,001,2025-11-07_12h26.41.707,regret_experiment,2024.2.4,121.35909957429163,0,0.7,0.5,0.2,2025-11-07 12h29.53.644997 -0800,
43,0,43,right,0.31908654200378805,None,None,43,0,43,0,216.05942725000205,,,,,,,,,216.0549020000035,216.05942725000205,0.008251499995822087,217.04461304101278,44,0,0.7,0.5,0.2,217.04489179101074,217.05372391600395,217.05372391600395,217.05372391600395,217.05372391600395,217.37705479099532,right,0.31908654200378805,None,right,0.31908654200378805,0.2,0,217.38961491599912,217.39629145798972,217.39629145798972,217.39629145798972,217.39629145798972,219.38746629099478,NA,NA,219.38787908299128,219.387911791011,None,219.38796683299006,219.39348495801096,220.3928768330079,220.38737729101558,217.05372391600395,,,,34054,001,2025-11-07_12h26.41.707,regret_experiment,2024.2.4,121.35909957429163,0,0.7,0.5,0.2,2025-11-07 12h29.53.644997 -0800,
44,0,44,left,0.40634874999523163,None,None,44,0,44,0,220.3928768330079,,,,,,,,,220.38782758300658,220.3928768330079,-0.00010516701149754226,221.37913754099282,45,0,0.7,0.5,0.2,221.37969258299563,221.38833074999275,221.38833074999275,221.38833074999275,221.38833074999275,221.80568341599428,left,0.40634874999523163,None,left,0.40634874999523163,0.7,1,221.8188644160109,221.8268621659954,221.8268621659954,221.8268621659954,221.8268621659954,223.8091458750132,NA,NA,223.80970516600064,223.8097449580091,None,223.80980016599642,223.82061075000092,224.81930766601,224.8084196659911,221.38833074999275,,,,34054,001,2025-11-07_12h26.41.707,regret_experiment,2024.2.4,121.35909957429163,0,0.7,0.5,0.2,2025-11-07 12h29.53.644997 -0800,
45,0,45,up,0.5306739169755019,None,None,45,0,45,0,224.81930766601,,,,,,,,,224.808863208018,224.81930766601,-0.000894750002771616,225.80317195801763,46,0,0.7,0.5,0.2,225.80341633301578,225.80835162498988,225.80835162498988,225.80835162498988,225.80835162498988,226.34452916600276,up,0.5306739169755019,None,up,0.5306739169755019,0.5,1,226.35780895801145,226.3648019579996,226.3648019579996,226.3648019579996,226.3648019579996,228.35318645799998,NA,NA,228.3536724160076,228.35372037501656,None,228.3537787499954,228.35839666600805,229.35242991600535,229.3434726250125,225.80835162498988,,,,34054,001,2025-11-07_12h26.41.707,regret_experiment,2024.2.4,121.35909957429163,0,0.7,0.5,0.2,2025-11-07 12h29.53.644997 -0800,
46,0,46,left,0.4606817079766188,None,None,46,0,46,0,229.35242991600535,,,,,,,,,229.34384554100689,229.35242991600535,0.004010333010228351,230.33792600000743,47,0,0.7,0.5,0.2,230.33851529099047,230.34451512500527,230.34451512500527,230.34451512500527,230.34451512500527,230.80985941601102,left,0.4606817079766188,None,left,0.4606817079766188,0.7,1,230.8229887500056,230.82971254101722,230.82971254101722,230.82971254101722,230.82971254101722,232.82013908299268,NA,NA,232.8205575000029,232.82058745800168,None,232.82064154100954,232.8251980410132,233.81990316600422,233.80843429101515,230.34451512500527,,,,34054,001,2025-11-07_12h26.41.707,regret_experiment,2024.2.4,121.35909957429163,0,0.7,0.5,0.2,2025-11-07 12h29.53.644997 -0800,
47,0,47,up,0.472202417004155,None,None,47,0,47,0,233.81990316600422,,,,,,,,,233.8087587080081,233.81990316600422,-0.0005936249799560755,234.80369612501818,48,0,0.7,0.5,0.2,234.80394025001442,234.8088931660168,234.8088931660168,234.8088931660168,234.8088931660168,235.28799970800173,up,0.472202417004155,None,up,0.472202417004155,0.5,1,235.30254183299257,235.3093330830161,235.3093330830161,235.3093330830161,235.3093330830161,237.2934585000039,NA,NA,237.293967583013,237.29399545799242,None,237.29404087501462,237.30283533301554,238.29114124999614,238.28607329100487,234.8088931660168,,,,34054,001,2025-11-07_12h26.41.707,regret_experiment,2024.2.4,121.35909957429163,0,0.7,0.5,0.2,2025-11-07 12h29.53.644997 -0800,
48,0,48,left,0.372505875013303,None,None,48,0,48,0,238.29114124999614,,,,,,,,,238.28642387498985,238.29114124999614,0.009409666003193706,239.27454941600445,49,0,0.7,0.5,0.2,239.27485366599285,239.29283179101185,239.29283179101185,239.29283179101185,239.29283179101185,239.67112137499498,left,0.372505875013303,None,left,0.372505875013303,0.7,1,239.68333150001126,239.6900770830107,239.6900770830107,239.6900770830107,239.6900770830107,241.67506104099448,NA,NA,241.67587733300752,241.6759789159987,None,241.6760889159923,241.6864542500116,242.6765157910122,242.67124733299715,239.28635199999553,,,,34054,001,2025-11-07_12h26.41.707,regret_experiment,2024.2.4,121.35909957429163,0,0.7,0.5,0.2,2025-11-07 12h29.53.644997 -0800,
49,0,49,right,0.3343939160113223,None,None,49,0,49,0,242.6765157910122,,,,,,,,,242.67175041598966,242.6765157910122,0.0005615410045720637,243.6692307080084,50,0,0.7,0.5,0.2,243.66951045801397,243.67459766601678,243.67459766601678,243.67459766601678,243.67459766601678,244.01053029100876,right,0.3343939160113223,None,right,0.3343939160113223,0.2,0,244.02366929099662,244.03052583298995,244.03052583298995,244.03052583298995,244.03052583298995,246.01954195799772,NA,NA,246.01987970800838,246.01990983300493,None,246.01996304100612,246.02443108300213,247.0192490410118,247.00858887500362,243.67459766601678,,,,34054,001,2025-11-07_12h26.41.707,regret_experiment,2024.2.4,121.35909957429163,0,0.7,0.5,0.2,2025-11-07 12h29.53.644997 -0800,
50,0,50,up,0.6551149169972632,None,None,50,0,50,0,247.0192490410118,,,,,,,,,247.00892366599874,247.0192490410118,-0.0005343749944586307,248.00383883301402,51,0,0.7,0.5,0.2,248.00442654101062,248.00979145799647,248.00979145799647,248.00979145799647,248.00979145799647,248.67031170800328,up,0.6551149169972632,None,up,0.6551149169972632,0.5,0,248.68301091599278,248.69046304101357,248.69046304101357,248.69046304101357,248.69046304101357,250.67422583300504,NA,NA,250.67472158299643,250.67476145800902,None,250.67481758299982,250.68597945800866,251.67515195801388,251.66945250000572,248.00979145799647,,,,34054,001,2025-11-07_12h26.41.707,regret_experiment,2024.2.4,121.35909957429163,0,0.7,0.5,0.2,2025-11-07 12h29.53.644997 -0800,
51,0,51,left,0.4373221249843482,None,None,51,0,51,0,251.67515195801388,,,,,,,,,251.6698607080034,251.67515195801388,0.0005526249879039824,252.66952345799655,52,0,0.7,0.5,0.2,252.66980916599277,252.67511187499622,252.67511187499622,252.67511187499622,252.67511187499622,253.12065979099134,left,0.4373221249843482,None,left,0.4373221249843482,0.7,1,253.13507079100236,253.14373170799809,253.14373170799809,253.14373170799809,253.14373170799809,255.12538012501318,NA,NA,255.1262360830151,255.12627945799613,None,255.12633533301414,255.135902790993,256.1246140410076,256.11935020799865,252.67511187499622,,,,34054,001,2025-11-07_12h26.41.707,regret_experiment,2024.2.4,121.35909957429163,0,0.7,0.5,0.2,2025-11-07 12h29.53.644997 -0800,
52,0,52,up,0.6523163340170868,None,None,52,0,52,0,256.1246140410076,,,,,,,,,256.1196692910162,256.1246140410076,0.00931141700129956,257.108767083002,53,0,0.7,0.5,0.2,257.10900537500856,257.12438312501763,257.12438312501763,257.12438312501763,257.12438312501763,257.78635475001647,up,0.6523163340170868,None,up,0.6523163340170868,0.5,1,257.80002245801734,257.8070856659906,257.8070856659906,257.8070856659906,257.8070856659906,259.7915087080037,NA,NA,259.7920279999962,259.792062833003,None,259.79211595800007,259.80220179099706,260.7917247500154,260.78633879098925,257.119024500018,,,,34054,001,2025-11-07_12h26.41.707,regret_experiment,2024.2.4,121.35909957429163,0,0.7,0.5,0.2,2025-11-07 12h29.53.644997 -0800,
53,0,53,left,0.4082663750159554,None,None,53,0,53,0,260.7917247500154,,,,,,,,,260.78693858301267,260.7917247500154,-0.0002787080011330545,261.7861930410145,54,0,0.7,0.5,0.2,261.786429166008,261.79182979100733,261.79182979100733,261.79182979100733,261.79182979100733,262.20369441600633,left,0.4082663750159554,None,left,0.4082663750159554,0.7,1,262.2171212499961,262.2245592499967,262.2245592499967,262.2245592499967,262.2245592499967,264.20716054100194,NA,NA,264.20838975001243,264.2084228750027,None,264.20848758300417,264.218772082997,265.20762220799224,265.2024865830026,261.79182979100733,,,,34054,001,2025-11-07_12h26.41.707,regret_experiment,2024.2.4,121.35909957429163,0,0.7,0.5,0.2,2025-11-07 12h29.53.644997 -0800,
54,0,54,up,0.6073228750028647,None,None,54,0,54,0,265.20762220799224,,,,,,,,,265.2028203330119,265.20762220799224,-0.0007255000236909837,266.1908464579901,55,0,0.7,0.5,0.2,266.1913238330162,266.2087474580039,266.2087474580039,266.2087474580039,266.2087474580039,266.82033849999425,up,0.6073228750028647,None,up,0.6073228750028647,0.5,1,266.8352097909956,266.84403816598933,266.84403816598933,266.84403816598933,266.84403816598933,268.8262652080157,NA,NA,268.8267522499955,268.82679283301695,None,268.8268495000084,268.834771875001,269.8239034579892,269.81888624999556,266.20228183301515,,,,34054,001,2025-11-07_12h26.41.707,regret_experiment,2024.2.4,121.35909957429163,0,0.7,0.5,0.2,2025-11-07 12h29.53.644997 -0800,
55,0,55,left,0.6873800409957767,None,None,55,0,55,0,269.8239034579892,,,,,,,,,269.81916970800376,269.8239034579892,0.007177541992859915,270.81851454099524,56,0,0.7,0.5,0.2,270.8187940409989,270.8240828330163,270.8240828330163,270.8240828330163,270.8240828330163,271.5199105410138,left,0.6873800409957767,None,left,0.6873800409957767,0.7,1,271.531662666006,271.5388013749907,271.5388013749907,271.5388013749907,271.5388013749907,273.52328645801754,NA,NA,273.52430950000416,273.5244149999926,None,273.52453925000736,273.53436437499477,274.5230285410071,274.5177196250006,270.8240828330163,,,,34054,001,2025-11-07_12h26.41.707,regret_experiment,2024.2.4,121.35909957429163,0,0.7,0.5,0.2,2025-11-07 12h29.53.644997 -0800,
56,0,56,right,0.39322374999755993,None,None,56,0,56,0,274.5230285410071,,,,,,,,,274.5181095000007,274.5230285410071,0.010968499991577119,275.5090347910009,57,0,0.7,0.5,0.2,275.5093329999945,275.5177312500018,275.5177312500018,275.5177312500018,275.5177312500018,275.9194271250162,right,0.39322374999755993,None,right,0.39322374999755993,0.2,0,275.9331756250176,275.9400292079954,275.9400292079954,275.9400292079954,275.9400292079954,277.92383600000176,NA,NA,277.9244544579997,277.92448954100837,None,277.9245353330043,277.9343192910019,278.9236498750106,278.9187112500076,275.5177312500018,,,,34054,001,2025-11-07_12h26.41.707,regret_experiment,2024.2.4,121.35909957429163,0,0.7,0.5,0.2,2025-11-07 12h29.53.644997 -0800,
57,0,57,up,0.5485071660077665,None,None,57,0,57,0,278.9236498750106,,,,,,,,,278.9190695830039,278.9236498750106,-0.0007759169966448098,279.91768687500735,58,0,0.7,0.5,0.2,279.918036957999,279.92314308299683,279.92314308299683,279.92314308299683,279.92314308299683,280.4752300410182,up,0.5485071660077665,None,up,0.5485071660077665,0.5,0,280.4878335829999,280.49458258299273,280.49458258299273,280.49458258299273,280.49458258299273,282.4841571249999,NA,NA,282.48469483299414,282.484729000018,None,282.4847863749892,282.48932783299824,283.48461170800147,283.4748195410066,279.92314308299683,,,,34054,001,2025-11-07_12h26.41.707,regret_experiment,2024.2.4,121.35909957429163,0,0.7,0.5,0.2,2025-11-07 12h29.53.644997 -0800,
58,0,58,left,0.38965325002209283,None,None,58,0,58,0,283.48461170800147,,,,,,,,,283.4751763330132,283.48461170800147,-3.704198752529919e-05,284.4682970409922,59,0,0.7,0.5,0.2,284.4685432499973,284.4736935830151,284.4736935830151,284.4736935830151,284.4736935830151,284.86890479101567,left,0.38965325002209283,None,left,0.38965325002209283,0.7,0,284.88254462499754,284.88933708300465,284.88933708300465,284.88933708300465,284.88933708300465,286.87481875001686,NA,NA,286.87534762499854,286.8753775410005,None,286.8754354160046,286.88439912500326,287.8831053750182,287.87211875000503,284.4736935830151,,,,34054,001,2025-11-07_12h26.41.707,regret_experiment,2024.2.4,121.35909957429163,0,0.7,0.5,0.2,2025-11-07 12h29.53.644997 -0800,
59,0,59,up,0.628070500009926,None,None,59,0,59,0,287.8831053750182,,,,,,,,,287.87245141601306,287.8831053750182,0.007786625006701797,288.86834491600166,60,0,0.7,0.5,0.2,288.8685537909914,288.87515300000086,288.87515300000086,288.87515300000086,288.87515300000086,289.5094328330015,up,0.628070500009926,None,up,0.628070500009926,0.5,0,289.5225161249982,289.5294026659976,289.5294026659976,289.5294026659976,289.5294026659976,291.51756141599617,NA,NA,291.5180838750093,291.51819662499474,None,291.5183118749992,291.5237657910038,292.55911920801736,292.5175905000069,288.87515300000086,,,,34054,001,2025-11-07_12h26.41.707,regret_experiment,2024.2.4,121.35909957429163,0,0.7,0.5,0.2,2025-11-07 12h29.53.644997 -0800,
,,,,,,,,,,,,,,,,,,,,,,,,,,,,,,,,,,,,,,,,,,,,,,,,,,,,,,,,,,N/A,292.5489445409912,292.55911920801736,,,,,,,,,,,,
