thisN,thisTrialN,thisRepN,key_resp_1.keys,key_resp_1.rt,key_resp_1.duration,regret_key.keys,regret_key.rt,regret_key.duration,trials.thisRepN,trials.thisTrialN,trials.thisN,trials.thisIndex,thisRow.t,notes,begin_exp.started,begin.started,advance_key.started,begin_exp.stopped,advance_key.keys,advance_key.rt,advance_key.duration,Fixation.started,fixcross.started,etRecord.started,Fixation.stopped,trial_num,participant_cond,prob_left,prob_up,prob_right,Choice.started,tree1_img.started,tree2_img.started,tree3_img.started,key_resp_1.started,Choice.stopped,trials.key_resp_1.keys,trials.key_resp_1.rt,trials.key_resp_1.duration,choice_key,choice_rt,choice_prob,points,Feedback.started,appleImage.started,tree1.started,tree2.started,tree3.started,Feedback.stopped,regret_rating,regret_rt,RegretRating.started,RegretRating.stopped,trials.regret_key.keys,ITI.started,blank_screen.started,blank_screen.stopped,ITI.stopped,fixcross.stopped,regret_scale.started,regret_key.started,rtree1.started,rtree2.started,rtree3.started,trials.regret_key.rt,trials.regret_key.duration,avg_regret,EndScreen.started,end_display.started,participant,session,date,expName,psychopyVersion,frameRate,participant_cond,prob_left,prob_up,prob_right,expStart,
,,,,,,,,,,,,,,,0.06455708299472462,0.09481587499612942,0.09481587499612942,2.7122917079977924,space,2.5065627500007395,None,,,,,,2,0.5,0.2,0.7,,,,,,,,,,,,,,,,,,,,,,,,,,,,,,,,,,,,,,,,34066,001,2025-10-31_10h19.03.562,regret_experiment,2024.2.4,None,2,0.5,0.2,0.7,2025-10-31 10h19.18.898007 -0700,
0,0,0,up,3.988571415990009,None,None,,,0,0,0,0,3.370430499999202,,,,,,,,,2.7194468329980737,3.370430499999202,0.007130875004804693,3.712593165997532,1,2,0.5,0.2,0.7,3.7129248330020346,3.723567583001568,3.723567583001568,3.723567583001568,3.723567583001568,7.716844499998842,up,3.988571415990009,None,up,3.988571415990009,0.2,0,7.756940624996787,7.77862687499146,7.77862687499146,7.77862687499146,7.77862687499146,9.724269665995962,NA,NA,9.724623500005691,9.72468679099984,None,9.72476558299968,9.731263958005002,10.730854458000977,10.724921125001856,,,,,,,,,,,,34066,001,2025-10-31_10h19.03.562,regret_experiment,2024.2.4,None,2,0.5,0.2,0.7,2025-10-31 10h19.18.898007 -0700,
1,0,1,left,1.48645845799183,None,None,,,1,0,1,0,10.730854458000977,,,,,,,,,10.725305540996487,10.730854458000977,0.0005925409932387993,11.72412295799586,2,2,0.5,0.2,0.7,11.724423166000634,11.729294499993557,11.729294499993557,11.729294499993557,11.729294499993557,13.225171750003938,left,1.48645845799183,None,left,1.48645845799183,0.5,1,13.237604249996366,13.245618665998336,13.245618665998336,13.245618665998336,13.245618665998336,15.230400957996608,NA,NA,15.23078075000376,15.230821290999302,None,15.230873124994105,15.240496333004558,16.239372333002393,16.228192665992538,11.729294499993557,,,,,,,,,,,34066,001,2025-10-31_10h19.03.562,regret_experiment,2024.2.4,None,2,0.5,0.2,0.7,2025-10-31 10h19.18.898007 -0700,
2,0,2,left,0.8178380419994937,None,None,,,2,0,2,0,16.239372333002393,,,,,,,,,16.228560666000703,16.239372333002393,0.00856204099545721,17.22412899999472,3,2,0.5,0.2,0.7,17.22455912499572,17.230092375000822,17.230092375000822,17.230092375000822,17.230092375000822,18.05969916599861,left,0.8178380419994937,None,left,0.8178380419994937,0.5,1,18.072160708004958,18.07895016600378,18.07895016600378,18.07895016600378,18.07895016600378,20.06211162499676,NA,NA,20.0624929159967,20.062538083002437,None,20.0626114159968,20.07393291599874,21.063088708004216,21.0574988330045,17.230092375000822,,,,,,,,,,,34066,001,2025-10-31_10h19.03.562,regret_experiment,2024.2.4,None,2,0.5,0.2,0.7,2025-10-31 10h19.18.898007 -0700,
3,0,3,left,0.6496282919979421,None,None,,,3,0,3,0,21.063088708004216,,,,,,,,,21.058265125000617,21.063088708004216,0.0005863330006832257,22.056918375004898,4,2,0.5,0.2,0.7,22.057215790991904,22.06188924999151,22.06188924999151,22.06188924999151,22.06188924999151,22.715233208000427,left,0.6496282919979421,None,left,0.6496282919979421,0.5,0,22.729451457998948,22.736299790994963,22.736299790994963,22.736299790994963,22.736299790994963,24.72298670800228,NA,NA,24.723407041004975,24.723441833004472,None,24.72348766599316,24.727609166002367,25.723491208002088,25.712393915993744,22.06188924999151,,,,,,,,,,,34066,001,2025-10-31_10h19.03.562,regret_experiment,2024.2.4,None,2,0.5,0.2,0.7,2025-10-31 10h19.18.898007 -0700,
4,0,4,right,0.951499333998072,None,None,,,4,0,4,0,25.723491208002088,,,,,,,,,25.713144541005022,25.723491208002088,6.066600326448679e-05,26.706745207993663,5,2,0.5,0.2,0.7,26.70698704100505,26.71220770799846,26.71220770799846,26.71220770799846,26.71220770799846,27.675319000001764,right,0.951499333998072,None,right,0.951499333998072,0.7,1,27.688485499995295,27.696839583004476,27.696839583004476,27.696839583004476,27.696839583004476,29.678107415995328,NA,NA,29.67849804100115,29.678539749991614,None,29.678604250002536,29.690090000003693,30.678379874996608,30.67383908299962,26.71220770799846,,,,,,,,,,,34066,001,2025-10-31_10h19.03.562,regret_experiment,2024.2.4,None,2,0.5,0.2,0.7,2025-10-31 10h19.18.898007 -0700,
5,0,5,right,0.5850936659990111,None,None,,,5,0,5,0,30.678379874996608,,,,,,,,,30.67421212499903,30.678379874996608,-0.00014895800268277526,31.66200579100405,6,2,0.5,0.2,0.7,31.662342957992223,31.673404665998532,31.673404665998532,31.673404665998532,31.673404665998532,32.2632142079965,right,0.5850936659990111,None,right,0.5850936659990111,0.7,1,32.275486500002444,32.282514541002456,32.282514541002456,32.282514541002456,32.282514541002456,34.273481625001295,NA,NA,34.27377216599416,34.27380679099588,None,34.27385562499694,34.27806924999459,35.27337387499574,35.261677749993396,31.673404665998532,,,,,,,,,,,34066,001,2025-10-31_10h19.03.562,regret_experiment,2024.2.4,None,2,0.5,0.2,0.7,2025-10-31 10h19.18.898007 -0700,
6,0,6,right,0.6793782500026282,None,None,,,6,0,6,0,35.27337387499574,,,,,,,,,35.26211654099461,35.27337387499574,-0.0004308330098865554,36.25729437499831,7,2,0.5,0.2,0.7,36.25762620799651,36.26313399999344,36.26313399999344,36.26313399999344,36.26313399999344,36.945499291003216,right,0.6793782500026282,None,right,0.6793782500026282,0.7,0,36.959070707991486,36.965983375004726,36.965983375004726,36.965983375004726,36.965983375004726,38.945917582997936,NA,NA,38.94640137499664,38.94644870799675,None,38.94650116599223,38.955957041005604,39.94498770800419,39.94042837500456,36.26313399999344,,,,,,,,,,,34066,001,2025-10-31_10h19.03.562,regret_experiment,2024.2.4,None,2,0.5,0.2,0.7,2025-10-31 10h19.18.898007 -0700,
7,0,7,up,0.9870221669989405,None,None,,,7,0,7,0,39.94498770800419,,,,,,,,,39.94082375000289,39.94498770800419,0.010172624999540858,40.92953049999778,8,2,0.5,0.2,0.7,40.92981562500063,40.93968916599988,40.93968916599988,40.93968916599988,40.93968916599988,41.929389124998124,up,0.9870221669989405,None,up,0.9870221669989405,0.2,0,41.941751207996276,41.949920040991856,41.949920040991856,41.949920040991856,41.949920040991856,43.93965791599476,NA,NA,43.940055040991865,43.940089041003375,None,43.940147665998666,43.944278416005545,44.93857579100586,44.92994175000058,40.93968916599988,,,,,,,,,,,34066,001,2025-10-31_10h19.03.562,regret_experiment,2024.2.4,None,2,0.5,0.2,0.7,2025-10-31 10h19.18.898007 -0700,
8,0,8,left,0.46716783300507814,None,None,,,8,0,8,0,44.93857579100586,,,,,,,,,44.930775665998226,44.93857579100586,0.0029167080065235496,45.923023166003986,9,2,0.5,0.2,0.7,45.92337258299813,45.94062266599212,45.94062266599212,45.94062266599212,45.94062266599212,46.41278566600522,left,0.46716783300507814,None,left,0.46716783300507814,0.5,0,46.425766582993674,46.432698000004166,46.432698000004166,46.432698000004166,46.432698000004166,48.42307495800196,NA,NA,48.42381162500533,48.42391941600363,None,48.42403233300138,48.42809849999321,49.42265274999954,49.41093183300109,45.928781082999194,,,,,,,,,,,34066,001,2025-10-31_10h19.03.562,regret_experiment,2024.2.4,None,2,0.5,0.2,0.7,2025-10-31 10h19.18.898007 -0700,
9,0,9,up,1.1041545000043698,None,None,,,9,0,9,0,49.42265274999954,,,,,,,,,49.41133712499868,49.42265274999954,0.002989792003063485,50.406514207992586,10,2,0.5,0.2,0.7,50.40725312499853,50.42278370799613,50.42278370799613,50.42278370799613,50.42278370799613,51.52977774999454,up,1.1041545000043698,None,up,1.1041545000043698,0.2,0,51.5439845410001,51.550843999997596,51.550843999997596,51.550843999997596,51.550843999997596,53.53971583300154,NA,NA,53.54041249999136,53.54052629099169,None,53.5406373750011,53.54626270799781,54.54488245799439,54.539319666000665,50.4122374580038,,,,,,,,,,,34066,001,2025-10-31_10h19.03.562,regret_experiment,2024.2.4,None,2,0.5,0.2,0.7,2025-10-31 10h19.18.898007 -0700,
10,0,10,left,0.5154287089972058,None,None,,,10,0,10,0,54.54488245799439,,,,,,,,,54.53968358300335,54.54488245799439,-0.000899291000678204,55.54094466600509,11,2,0.5,0.2,0.7,55.54198220800026,55.54767187499965,55.54767187499965,55.54767187499965,55.54767187499965,56.073663082992425,left,0.5154287089972058,None,left,0.5154287089972058,0.5,1,56.08580616599647,56.09268716600491,56.09268716600491,56.09268716600491,56.09268716600491,58.077471458003856,NA,NA,58.07819658299559,58.07831145799719,None,58.07843166599923,58.0891862080025,59.080455582996365,59.07329083299555,55.54767187499965,,,,,,,,,,,34066,001,2025-10-31_10h19.03.562,regret_experiment,2024.2.4,None,2,0.5,0.2,0.7,2025-10-31 10h19.18.898007 -0700,
11,0,11,left,0.7128359589987667,None,None,,,11,0,11,0,59.080455582996365,,,,,,,,,59.073990582997794,59.080455582996365,0.002196959001594223,60.0730794580013,12,2,0.5,0.2,0.7,60.07335420799791,60.07809412499773,60.07809412499773,60.07809412499773,60.07809412499773,60.7948811660026,left,0.7128359589987667,None,left,0.7128359589987667,0.5,1,60.807778707996476,60.816567791000125,60.816567791000125,60.816567791000125,60.816567791000125,62.7954111250001,NA,NA,62.795821374995285,62.79587658299715,None,62.795933250003145,62.80579183300142,63.79534945799969,63.789247332999366,60.07809412499773,,,,,,,,,,,34066,001,2025-10-31_10h19.03.562,regret_experiment,2024.2.4,None,2,0.5,0.2,0.7,2025-10-31 10h19.18.898007 -0700,
12,0,12,right,0.5318164580094162,None,None,,,12,0,12,0,63.79534945799969,,,,,,,,,63.78971229099261,63.79534945799969,-0.0005149159987922758,64.78890866599977,13,2,0.5,0.2,0.7,64.7892628749978,64.79434045800008,64.79434045800008,64.79434045800008,64.79434045800008,65.32806524999614,right,0.5318164580094162,None,right,0.5318164580094162,0.7,1,65.34167654099292,65.34931008299463,65.34931008299463,65.34931008299463,65.34931008299463,67.33869862499705,NA,NA,67.33899979099806,67.33904137500213,None,67.33911554099177,67.34372920800524,68.33859204099281,68.32680300000357,64.79434045800008,,,,,,,,,,,34066,001,2025-10-31_10h19.03.562,regret_experiment,2024.2.4,None,2,0.5,0.2,0.7,2025-10-31 10h19.18.898007 -0700,
13,0,13,right,0.5269083340099314,None,None,,,13,0,13,0,68.33859204099281,,,,,,,,,68.32720437500393,68.33859204099281,-0.0004412499984027818,69.32300104100432,14,2,0.5,0.2,0.7,69.32359637500485,69.32994370799861,69.32994370799861,69.32994370799861,69.32994370799861,69.86296570800187,right,0.5269083340099314,None,right,0.5269083340099314,0.7,0,69.8797396250011,69.88771912499215,69.88771912499215,69.88771912499215,69.88771912499215,71.87233054099488,NA,NA,71.87319320799725,71.8732902079937,None,71.87341874999402,71.87898116599536,72.87853454099968,72.87190287500562,69.32994370799861,,,,,,,,,,,34066,001,2025-10-31_10h19.03.562,regret_experiment,2024.2.4,None,2,0.5,0.2,0.7,2025-10-31 10h19.18.898007 -0700,
14,0,14,left,1.2298900419991696,None,None,,,14,0,14,0,72.87853454099968,,,,,,,,,72.87322170799598,72.87853454099968,-9.470900113228709e-05,73.87342241599981,15,2,0.5,0.2,0.7,73.87443995800277,73.87982583299163,73.87982583299163,73.87982583299163,73.87982583299163,75.1114388749993,left,1.2298900419991696,None,left,1.2298900419991696,0.5,0,75.12437458299974,75.13118012499763,75.13118012499763,75.13118012499763,75.13118012499763,77.11802945799718,NA,NA,77.1605108329968,77.16058687500481,None,77.16091462499753,77.1686658749968,78.15987208299339,78.15531937500054,73.87982583299163,,,,,,,,,,,34066,001,2025-10-31_10h19.03.562,regret_experiment,2024.2.4,None,2,0.5,0.2,0.7,2025-10-31 10h19.18.898007 -0700,
15,0,15,right,0.3452830000023823,None,None,,,15,0,15,0,78.15987208299339,,,,,,,,,78.15569379099179,78.15987208299339,-0.0007053750014165416,79.14481250000244,16,2,0.5,0.2,0.7,79.14511770800164,79.15534825000213,79.15534825000213,79.15534825000213,79.15534825000213,79.5056480409985,right,0.3452830000023823,None,right,0.3452830000023823,0.7,1,79.5187999579939,79.52691712499654,79.52691712499654,79.52691712499654,79.52691712499654,81.50990499999898,NA,NA,81.51028420799412,81.5103398749925,None,81.51041445799638,81.52174283299246,82.50985200000287,82.50522220799758,79.15534825000213,,,,,,,,,,,34066,001,2025-10-31_10h19.03.562,regret_experiment,2024.2.4,None,2,0.5,0.2,0.7,2025-10-31 10h19.18.898007 -0700,
16,0,16,right,0.7139252909983043,None,None,,,16,0,16,0,82.50985200000287,,,,,,,,,82.50562470799196,82.50985200000287,-0.0004044170054839924,83.49296120800136,17,2,0.5,0.2,0.7,83.49327999999514,83.5098581659986,83.5098581659986,83.5098581659986,83.5098581659986,84.22951200000534,right,0.7139252909983043,None,right,0.7139252909983043,0.7,1,84.24396987499495,84.25051166600315,84.25051166600315,84.25051166600315,84.25051166600315,86.23861050000414,NA,NA,86.23957445799897,86.23972916600178,None,86.2398411250033,86.24546566599747,87.24419412499992,87.2386859160033,83.50512837499264,,,,,,,,,,,34066,001,2025-10-31_10h19.03.562,regret_experiment,2024.2.4,None,2,0.5,0.2,0.7,2025-10-31 10h19.18.898007 -0700,
17,0,17,left,0.5533178329933435,None,None,,,17,0,17,0,87.24419412499992,,,,,,,,,87.23903524999332,87.24419412499992,-0.0007501669897465035,88.23863179099862,18,2,0.5,0.2,0.7,88.23896124999737,88.24365016599768,88.24365016599768,88.24365016599768,88.24365016599768,88.80517141599557,left,0.5533178329933435,None,left,0.5533178329933435,0.5,0,88.81911129099899,88.82619108300423,88.82619108300423,88.82619108300423,88.82619108300423,90.81055466599355,NA,NA,90.81098416600435,90.81103341600101,None,90.81108920800034,90.82149208299234,91.81168687499303,91.80609666599776,88.24365016599768,,,,,,,,,,,34066,001,2025-10-31_10h19.03.562,regret_experiment,2024.2.4,None,2,0.5,0.2,0.7,2025-10-31 10h19.18.898007 -0700,
18,0,18,up,0.7368847499892581,None,None,,,18,0,18,0,91.81168687499303,,,,,,,,,91.8069517499971,91.81168687499303,0.0006756660004612058,92.80496629100526,19,2,0.5,0.2,0.7,92.80524208299175,92.811442582999,92.811442582999,92.811442582999,92.811442582999,93.5557405409927,up,0.7368847499892581,None,up,0.7368847499892581,0.2,0,93.56841608299874,93.57733949999965,93.57733949999965,93.57733949999965,93.57733949999965,95.56054512500123,NA,NA,95.5609824580024,95.56103887499194,None,95.56108887499431,95.57144741600496,96.55939566600136,96.5548012079962,92.811442582999,,,,,,,,,,,34066,001,2025-10-31_10h19.03.562,regret_experiment,2024.2.4,None,2,0.5,0.2,0.7,2025-10-31 10h19.18.898007 -0700,
19,0,19,right,0.4018764159991406,None,None,,,19,0,19,0,96.55939566600136,,,,,,,,,96.55516012500448,96.55939566600136,0.010343875008402392,97.54429104100564,20,2,0.5,0.2,0.7,97.54461924999487,97.55438579099427,97.55438579099427,97.55438579099427,97.55438579099427,97.96041512499505,right,0.4018764159991406,None,right,0.4018764159991406,0.7,0,97.97282533299585,97.97921887499979,97.97921887499979,97.97921887499979,97.97921887499979,99.9608583329973,NA,NA,99.96126508299494,99.96130599999742,None,99.9613752909936,99.97122541599674,100.96181212499505,100.95539745800488,97.55438579099427,,,,,,,,,,,34066,001,2025-10-31_10h19.03.562,regret_experiment,2024.2.4,None,2,0.5,0.2,0.7,2025-10-31 10h19.18.898007 -0700,
20,0,20,left,0.3955800419935258,None,None,,,20,0,20,0,100.96181212499505,,,,,,,,,100.95613395799592,100.96181212499505,0.0005361249932320789,101.95552220799436,21,2,0.5,0.2,0.7,101.955795707996,101.96039929099788,101.96039929099788,101.96039929099788,101.96039929099788,102.35846366599435,left,0.3955800419935258,None,left,0.3955800419935258,0.5,1,102.37048491599853,102.37711883299926,102.37711883299926,102.37711883299926,102.37711883299926,104.35948637500405,NA,NA,104.35989991600218,104.35994916599884,None,104.36000579099345,104.3703754159942,105.35919149999972,105.35458154100343,101.96039929099788,,,,,,,,,,,34066,001,2025-10-31_10h19.03.562,regret_experiment,2024.2.4,None,2,0.5,0.2,0.7,2025-10-31 10h19.18.898007 -0700,
21,0,21,left,0.5178440410090843,None,None,,,21,0,21,0,105.35919149999972,,,,,,,,,105.35502604099747,105.35919149999972,-0.0006756250077160075,106.34239150000212,22,2,0.5,0.2,0.7,106.34300437499769,106.35873537500447,106.35873537500447,106.35873537500447,106.35873537500447,106.88793541600171,left,0.5178440410090843,None,left,0.5178440410090843,0.5,1,106.89909862499917,106.90571054100292,106.90571054100292,106.90571054100292,106.90571054100292,108.8931208330032,NA,NA,108.89352670799417,108.89357408300566,None,108.89362808299484,108.9040557499975,109.89251700000023,109.88794641599816,106.35405958299816,,,,,,,,,,,34066,001,2025-10-31_10h19.03.562,regret_experiment,2024.2.4,None,2,0.5,0.2,0.7,2025-10-31 10h19.18.898007 -0700,
22,0,22,left,0.4860251249920111,None,None,,,22,0,22,0,109.89251700000023,,,,,,,,,109.88830966599926,109.89251700000023,-0.0009628330008126795,110.8755076660018,23,2,0.5,0.2,0.7,110.87584258300194,110.89393087499775,110.89393087499775,110.89393087499775,110.89393087499775,111.38872458299738,left,0.4860251249920111,None,left,0.4860251249920111,0.5,0,111.40400420800142,111.41092491599557,111.41092491599557,111.41092491599557,111.41092491599557,113.3934526660014,NA,NA,113.39393058299902,113.39396575000137,None,113.39401433299645,113.40397404099349,114.39162345799559,114.38708620799298,110.88745774999552,,,,,,,,,,,34066,001,2025-10-31_10h19.03.562,regret_experiment,2024.2.4,None,2,0.5,0.2,0.7,2025-10-31 10h19.18.898007 -0700,
23,0,23,right,0.5524461250024615,None,None,,,23,0,23,0,114.39162345799559,,,,,,,,,114.38740175000567,114.39162345799559,0.009004332998301834,115.37685874999443,24,2,0.5,0.2,0.7,115.37718754100206,115.38715133299411,115.38715133299411,115.38715133299411,115.38715133299411,115.9454235000012,right,0.5524461250024615,None,right,0.5524461250024615,0.7,1,115.95858350000344,115.96647345800011,115.96647345800011,115.96647345800011,115.96647345800011,117.95404445800523,NA,NA,117.95482962499955,117.9549377910007,None,117.9550599159993,117.96064016599848,118.95951699999569,118.95404045800387,115.38715133299411,,,,,,,,,,,34066,001,2025-10-31_10h19.03.562,regret_experiment,2024.2.4,None,2,0.5,0.2,0.7,2025-10-31 10h19.18.898007 -0700,
24,0,24,right,0.5618940840067808,None,None,,,24,0,24,0,118.95951699999569,,,,,,,,,118.95480991600198,118.95951699999569,-0.00018704100511968136,119.94385212499765,25,2,0.5,0.2,0.7,119.94413762500335,119.95395825000014,119.95395825000014,119.95395825000014,119.95395825000014,120.52136783300375,right,0.5618940840067808,None,right,0.5618940840067808,0.7,1,120.53281058299763,120.53931374999229,120.53931374999229,120.53931374999229,120.53931374999229,122.52728599999682,NA,NA,122.52778008299356,122.52782191599545,None,122.52786524999829,122.5370981659944,123.52633395799785,123.52136316600081,119.95395825000014,,,,,,,,,,,34066,001,2025-10-31_10h19.03.562,regret_experiment,2024.2.4,None,2,0.5,0.2,0.7,2025-10-31 10h19.18.898007 -0700,
25,0,25,right,0.5028015409916406,None,None,,,25,0,25,0,123.52633395799785,,,,,,,,,123.52198570799374,123.52633395799785,0.009424041010788642,124.50948166599846,26,2,0.5,0.2,0.7,124.51004304099479,124.52459358300257,124.52459358300257,124.52459358300257,124.52459358300257,125.03788558300585,right,0.5028015409916406,None,right,0.5028015409916406,0.7,1,125.04947308299597,125.05598345800536,125.05598345800536,125.05598345800536,125.05598345800536,127.04347416599921,NA,NA,127.04387974999554,127.04392579100386,None,127.04398033299367,127.0528940410004,128.04149308300111,128.03700966600445,124.52004958299221,,,,,,,,,,,34066,001,2025-10-31_10h19.03.562,regret_experiment,2024.2.4,None,2,0.5,0.2,0.7,2025-10-31 10h19.18.898007 -0700,
26,0,26,right,0.6083530000032624,None,None,,,26,0,26,0,128.04149308300111,,,,,,,,,128.03736729099182,128.04149308300111,0.009652666994952597,129.02685049999855,27,2,0.5,0.2,0.7,129.02717825000582,129.0360783329961,129.0360783329961,129.0360783329961,129.0360783329961,129.65447850000055,right,0.6083530000032624,None,right,0.6083530000032624,0.7,0,129.66901287500514,129.67686066600436,129.67686066600436,129.67686066600436,129.67686066600436,131.65797737499815,NA,NA,131.65860895799415,131.65870683299727,None,131.65881416600314,131.67033795799944,132.6593642910011,132.65425033299834,129.0360783329961,,,,,,,,,,,34066,001,2025-10-31_10h19.03.562,regret_experiment,2024.2.4,None,2,0.5,0.2,0.7,2025-10-31 10h19.18.898007 -0700,
27,0,27,left,0.44774175000202376,None,None,,,27,0,27,0,132.6593642910011,,,,,,,,,132.65463237499353,132.6593642910011,0.0006832499930169433,133.64332579099573,28,2,0.5,0.2,0.7,133.6436282079958,133.652504083002,133.652504083002,133.652504083002,133.652504083002,134.1039193750039,left,0.44774175000202376,None,left,0.44774175000202376,0.5,0,134.1164429999917,134.1231237500033,134.1231237500033,134.1231237500033,134.1231237500033,136.10765220799658,NA,NA,136.10811445799482,136.10816154099302,None,136.1082197079959,136.11925624999276,137.10860383299587,137.10295666599995,133.652504083002,,,,,,,,,,,34066,001,2025-10-31_10h19.03.562,regret_experiment,2024.2.4,None,2,0.5,0.2,0.7,2025-10-31 10h19.18.898007 -0700,
28,0,28,left,0.4231393750087591,None,None,,,28,0,28,0,137.10860383299587,,,,,,,,,137.10334941599285,137.10860383299587,0.0006029169890098274,138.10337045800406,29,2,0.5,0.2,0.7,138.10370720799256,138.10827687500569,138.10827687500569,138.10827687500569,138.10827687500569,138.53750525000214,left,0.4231393750087591,None,left,0.4231393750087591,0.5,0,138.54990366600396,138.5567963749927,138.5567963749927,138.5567963749927,138.5567963749927,140.54032695799833,NA,NA,140.5407269999996,140.5407717909984,None,140.5408456659934,140.5522720000008,141.5407594159915,141.53601541600074,138.10827687500569,,,,,,,,,,,34066,001,2025-10-31_10h19.03.562,regret_experiment,2024.2.4,None,2,0.5,0.2,0.7,2025-10-31 10h19.18.898007 -0700,
29,0,29,right,0.5869834169861861,None,None,,,29,0,29,0,141.5407594159915,,,,,,,,,141.53646291600307,141.5407594159915,7.379100134130567e-05,142.52403991599567,30,2,0.5,0.2,0.7,142.524358708004,142.5354948329914,142.5354948329914,142.5354948329914,142.5354948329914,143.12718166600098,right,0.5869834169861861,None,right,0.5869834169861861,0.7,1,143.14049187500495,143.14731233299244,143.14731233299244,143.14731233299244,143.14731233299244,145.1365072500048,NA,NA,145.1375655830052,145.1376745000016,None,145.13778995799657,145.14248020800005,146.14176504100033,146.13650704099564,142.5354948329914,,,,,,,,,,,34066,001,2025-10-31_10h19.03.562,regret_experiment,2024.2.4,None,2,0.5,0.2,0.7,2025-10-31 10h19.18.898007 -0700,
30,0,30,right,0.33890558300481644,None,1,2.9031156249984633,None,30,0,30,0,146.14176504100033,,,,,,,,,146.1368709160015,146.14176504100033,-0.0008614999969722703,147.12590808299137,31,2,0.5,0.2,0.7,147.12621041599778,147.13595212499786,147.13595212499786,147.13595212499786,147.13595212499786,147.47685704099422,right,0.33890558300481644,None,right,0.33890558300481644,0.7,0,147.48976733299787,147.49742250000418,147.49742250000418,147.49742250000418,147.49742250000418,149.48541866599408,1,2.9031156249984633,149.4918545410037,152.42024008299632,1,152.42030499999237,152.6117084580037,,153.42531258300005,147.13595212499786,149.50730974999897,149.50730974999897,149.50730974999897,149.50730974999897,149.50730974999897,2.9031156249984633,None,,,,34066,001,2025-10-31_10h19.03.562,regret_experiment,2024.2.4,None,2,0.5,0.2,0.7,2025-10-31 10h19.18.898007 -0700,
31,0,31,left,0.81601020898961,None,1,2.0941321249993052,None,31,0,31,0,153.4353691659926,,,,,,,,,153.4259080000047,153.4353691659926,0.005638874994474463,154.421196041003,32,2,0.5,0.2,0.7,154.42164400000183,154.42634262499632,154.42634262499632,154.42634262499632,154.42634262499632,155.25473258299462,left,0.81601020898961,None,left,0.81601020898961,0.5,0,155.26850166599615,155.27582137500576,155.27582137500576,155.27582137500576,155.27582137500576,157.25701133300026,1,2.0941321249993052,157.26405020800303,159.38687699999718,1,159.38697062499705,159.39378041599412,160.3930526250042,160.38649304100545,154.42634262499632,157.28498854099598,157.28498854099598,157.28498854099598,157.28498854099598,157.28498854099598,2.0941321249993052,None,,,,34066,001,2025-10-31_10h19.03.562,regret_experiment,2024.2.4,None,2,0.5,0.2,0.7,2025-10-31 10h19.18.898007 -0700,
32,0,32,up,0.7528721660055453,None,2,1.214527749994886,None,32,0,32,0,160.3930526250042,,,,,,,,,160.38747720800166,160.3930526250042,0.0005781250074505806,161.38644091600145,33,2,0.5,0.2,0.7,161.38699683299637,161.39318854099838,161.39318854099838,161.39318854099838,161.39318854099838,162.1533850410051,up,0.7528721660055453,None,up,0.7528721660055453,0.2,0,162.16631400000188,162.175498083001,162.175498083001,162.175498083001,162.175498083001,164.15878908299783,2,1.214527749994886,164.1662955829961,165.39432391599985,2,165.39438929100288,165.40088495799864,166.3902378329949,166.38567274999514,161.39318854099838,164.1727559580031,164.1727559580031,164.1727559580031,164.1727559580031,164.1727559580031,1.214527749994886,None,,,,34066,001,2025-10-31_10h19.03.562,regret_experiment,2024.2.4,None,2,0.5,0.2,0.7,2025-10-31 10h19.18.898007 -0700,
33,0,33,right,0.5631338340026559,None,None,,,33,0,33,0,166.3902378329949,,,,,,,,,166.38606162500218,166.3902378329949,0.0079366249992745,167.37560783300432,34,2,0.5,0.2,0.7,167.37608616599755,167.39064320799662,167.39064320799662,167.39064320799662,167.39064320799662,167.95806299999822,right,0.5631338340026559,None,right,0.5631338340026559,0.7,1,167.97121195799264,167.97788183299417,167.97788183299417,167.97788183299417,167.97788183299417,169.96845849999227,NA,NA,169.96874112500518,169.96877799999493,None,169.9688282499992,169.97299325000495,170.96862795800553,170.95637562499905,167.38573041600466,,,,,,,,,,,34066,001,2025-10-31_10h19.03.562,regret_experiment,2024.2.4,None,2,0.5,0.2,0.7,2025-10-31 10h19.18.898007 -0700,
34,0,34,right,0.560916417001863,None,1,2.60945425000682,None,34,0,34,0,170.96862795800553,,,,,,,,,170.95676887499576,170.96862795800553,-0.00014445799752138555,171.9556094159925,35,2,0.5,0.2,0.7,171.95592670800397,171.96868154099502,171.96868154099502,171.96868154099502,171.96868154099502,172.53520808300527,right,0.560916417001863,None,right,0.560916417001863,0.7,0,172.54816920799203,172.55469720800465,172.55469720800465,172.55469720800465,172.55469720800465,174.53908966599556,1,2.60945425000682,174.54559183299716,177.16932570800418,1,177.16941658299766,177.1774491660035,178.17521750000014,178.16858050000155,171.96868154099502,174.5514965409966,174.5514965409966,174.5514965409966,174.5514965409966,174.5514965409966,2.60945425000682,None,,,,34066,001,2025-10-31_10h19.03.562,regret_experiment,2024.2.4,None,2,0.5,0.2,0.7,2025-10-31 10h19.18.898007 -0700,
35,0,35,left,0.009475458995439112,None,None,,,35,0,35,0,178.17521750000014,,,,,,,,,178.16895445800037,178.17521750000014,-0.00040433299727737904,179.16936112499388,36,2,0.5,0.2,0.7,179.16988983299234,179.17585866599984,179.17585866599984,179.17585866599984,179.17585866599984,179.190389957992,left,0.009475458995439112,None,left,0.009475458995439112,0.5,1,179.20240995800123,179.20887516600487,179.20887516600487,179.20887516600487,179.20887516600487,181.20158458300284,NA,NA,181.20191579099628,181.2019527079974,None,181.2020047499973,181.2062933749985,182.20819716599362,182.201342165994,179.17585866599984,,,,,,,,,,,34066,001,2025-10-31_10h19.03.562,regret_experiment,2024.2.4,None,2,0.5,0.2,0.7,2025-10-31 10h19.18.898007 -0700,
36,0,36,left,0.46672541699081194,None,None,,,36,0,36,0,182.20819716599362,,,,,,,,,182.2021349160059,182.20819716599362,0.00023275001149158925,183.20146204100456,37,2,0.5,0.2,0.7,183.20176266599447,183.20733779099828,183.20733779099828,183.20733779099828,183.20733779099828,183.68670783299603,left,0.46672541699081194,None,left,0.46672541699081194,0.5,1,183.70443108299514,183.71216445800383,183.71216445800383,183.71216445800383,183.71216445800383,185.68932204099838,NA,NA,185.69023229100276,185.69033337499422,None,185.69045529099822,185.70111191600154,186.69188766600564,186.68561858299654,183.20733779099828,,,,,,,,,,,34066,001,2025-10-31_10h19.03.562,regret_experiment,2024.2.4,None,2,0.5,0.2,0.7,2025-10-31 10h19.18.898007 -0700,
37,0,37,left,0.48872791598842014,None,1,1.6741218329989351,None,37,0,37,0,186.69188766600564,,,,,,,,,186.68648649999523,186.69188766600564,0.0015584159991703928,187.68422637500043,38,2,0.5,0.2,0.7,187.6845782080054,187.68940508300147,187.68940508300147,187.68940508300147,187.68940508300147,188.18618954099657,left,0.48872791598842014,None,left,0.48872791598842014,0.5,0,188.20377141599602,188.21188816599897,188.21188816599897,188.21188816599897,188.21188816599897,190.19089183300093,1,1.6741218329989351,190.19935962499585,191.88578420800332,1,191.88587225000083,191.8899365410034,192.88895187499293,192.88442679100262,187.68940508300147,190.20687412499683,190.20687412499683,190.20687412499683,190.20687412499683,190.20687412499683,1.6741218329989351,None,,,,34066,001,2025-10-31_10h19.03.562,regret_experiment,2024.2.4,None,2,0.5,0.2,0.7,2025-10-31 10h19.18.898007 -0700,
38,0,38,right,0.9084976669983007,None,None,,,38,0,38,0,192.88895187499293,,,,,,,,,192.88480487499328,192.88895187499293,0.003158500010613352,193.8738912080007,39,2,0.5,0.2,0.7,193.8741779999982,193.88393483299296,193.88393483299296,193.88393483299296,193.88393483299296,194.80190045799827,right,0.9084976669983007,None,right,0.9084976669983007,0.7,1,194.8136855000048,194.82042954099597,194.82042954099597,194.82042954099597,194.82042954099597,196.80544679099694,NA,NA,196.80608833300357,196.80619350000052,None,196.80631395800447,196.8174891249946,197.80782375000126,197.8022824159998,193.88393483299296,,,,,,,,,,,34066,001,2025-10-31_10h19.03.562,regret_experiment,2024.2.4,None,2,0.5,0.2,0.7,2025-10-31 10h19.18.898007 -0700,
39,0,39,right,0.5628636250039563,None,None,,,39,0,39,0,197.80782375000126,,,,,,,,,197.8032099580014,197.80782375000126,0.0016043329960666597,198.80116666600225,40,2,0.5,0.2,0.7,198.8014477079996,198.8061884159979,198.8061884159979,198.8061884159979,198.8061884159979,199.3751816659933,right,0.5628636250039563,None,right,0.5628636250039563,0.7,1,199.38741258300433,199.39471374999266,199.39471374999266,199.39471374999266,199.39471374999266,201.38457558299706,NA,NA,201.3848921250028,201.38492945799953,None,201.384990999999,201.38904954100144,202.3833581249928,202.3725762499962,198.8061884159979,,,,,,,,,,,34066,001,2025-10-31_10h19.03.562,regret_experiment,2024.2.4,None,2,0.5,0.2,0.7,2025-10-31 10h19.18.898007 -0700,
40,0,40,left,2.0969016249873675,None,2,1.552885334007442,None,40,0,40,0,202.3833581249928,,,,,,,,,202.37291708300472,202.3833581249928,0.0028852909890701994,203.3675035000051,41,2,0.5,0.2,0.7,203.36768216600467,203.3837797909946,203.3837797909946,203.3837797909946,203.3837797909946,205.48680366600456,left,2.0969016249873675,None,left,2.0969016249873675,0.5,0,205.50073241599603,205.50758220799617,205.50758220799617,205.50758220799617,205.50758220799617,207.48880066600395,2,1.552885334007442,207.49744212499354,209.06747154099867,2,209.06760604100418,209.07932245799748,210.0728933329956,210.067336291002,203.37171274999855,207.50532500000554,207.50532500000554,207.50532500000554,207.50532500000554,207.50532500000554,1.552885334007442,None,,,,34066,001,2025-10-31_10h19.03.562,regret_experiment,2024.2.4,None,2,0.5,0.2,0.7,2025-10-31 10h19.18.898007 -0700,
41,0,41,right,0.5581755829916801,None,1,0.8034352920076344,None,41,0,41,0,210.0728933329956,,,,,,,,,210.06778804099304,210.0728933329956,0.0002529170014895499,211.05649041599827,42,2,0.5,0.2,0.7,211.05682904100104,211.06631962499523,211.06631962499523,211.06631962499523,211.06631962499523,211.63464616599958,right,0.5581755829916801,None,right,0.5581755829916801,0.7,0,211.64684616599698,211.65439887500543,211.65439887500543,211.65439887500543,211.65439887500543,213.63851816600072,1,0.8034352920076344,213.64684437500546,214.4585742909985,1,214.45863645800273,214.46582733299874,215.45695170799445,215.45112574999803,211.06631962499523,213.65317241600133,213.65317241600133,213.65317241600133,213.65317241600133,213.65317241600133,0.8034352920076344,None,,,,34066,001,2025-10-31_10h19.03.562,regret_experiment,2024.2.4,None,2,0.5,0.2,0.7,2025-10-31 10h19.18.898007 -0700,
42,0,42,right,0.3294297499960521,None,None,,,42,0,42,0,215.45695170799445,,,,,,,,,215.4519147079991,215.45695170799445,0.008285624993732199,216.4504217079957,43,2,0.5,0.2,0.7,216.4506934999954,216.4553719579999,216.4553719579999,216.4553719579999,216.4553719579999,216.7914092909923,right,0.3294297499960521,None,right,0.3294297499960521,0.7,1,216.80470645800233,216.8111652910011,216.8111652910011,216.8111652910011,216.8111652910011,218.80011008300062,NA,NA,218.80043550000119,218.80047249999188,None,218.8005326660059,218.80454816599376,219.79931995799416,219.7891414159967,216.4553719579999,,,,,,,,,,,34066,001,2025-10-31_10h19.03.562,regret_experiment,2024.2.4,None,2,0.5,0.2,0.7,2025-10-31 10h19.18.898007 -0700,
43,0,43,right,0.41921454200928565,None,None,,,43,0,43,0,219.79931995799416,,,,,,,,,219.7895374159998,219.79931995799416,0.0034193329920526594,220.78308470800403,44,2,0.5,0.2,0.7,220.7833607079956,220.79919395799516,220.79919395799516,220.79919395799516,220.79919395799516,221.22372179100057,right,0.41921454200928565,None,right,0.41921454200928565,0.7,1,221.23742350000248,221.2450082909927,221.2450082909927,221.2450082909927,221.2450082909927,223.2331257909973,NA,NA,223.2335181249946,223.23354987500352,None,223.23360458300158,223.23772750000353,224.23189349999302,224.22134350000124,220.788110124995,,,,,,,,,,,34066,001,2025-10-31_10h19.03.562,regret_experiment,2024.2.4,None,2,0.5,0.2,0.7,2025-10-31 10h19.18.898007 -0700,
44,0,44,right,0.6318775000108872,None,None,,,44,0,44,0,224.23189349999302,,,,,,,,,224.22174374999304,224.23189349999302,0.002903917004005052,225.21725758300454,45,2,0.5,0.2,0.7,225.21784908299742,225.2233529160003,225.2233529160003,225.2233529160003,225.2233529160003,225.85754116599855,right,0.6318775000108872,None,right,0.6318775000108872,0.7,1,225.86895358300535,225.8757005410007,225.8757005410007,225.8757005410007,225.8757005410007,227.8664540000027,NA,NA,227.86717041599331,227.86727062499267,None,227.86738224999863,227.87282087499625,228.87378833300318,228.86767112500092,225.2233529160003,,,,,,,,,,,34066,001,2025-10-31_10h19.03.562,regret_experiment,2024.2.4,None,2,0.5,0.2,0.7,2025-10-31 10h19.18.898007 -0700,
45,0,45,right,0.42400645899761,None,None,,,45,0,45,0,228.87378833300318,,,,,,,,,228.86860866600182,228.87378833300318,0.001317207992542535,229.866513749992,46,2,0.5,0.2,0.7,229.8667941659951,229.87133854099375,229.87133854099375,229.87133854099375,229.87133854099375,230.30112504100543,right,0.42400645899761,None,right,0.42400645899761,0.7,1,230.31528070800414,230.3241530410014,230.3241530410014,230.3241530410014,230.3241530410014,232.3040785829944,NA,NA,232.30451091600116,232.30455495799833,None,232.3046083329973,232.31625950000307,233.3064591250004,233.30070195799635,229.87133854099375,,,,,,,,,,,34066,001,2025-10-31_10h19.03.562,regret_experiment,2024.2.4,None,2,0.5,0.2,0.7,2025-10-31 10h19.18.898007 -0700,
46,0,46,right,0.4762433329888154,None,None,,,46,0,46,0,233.3064591250004,,,,,,,,,233.30157637500088,233.3064591250004,0.001928750003571622,234.290000915993,47,2,0.5,0.2,0.7,234.29028554099204,234.29927683300048,234.29927683300048,234.29927683300048,234.29927683300048,234.78848620799545,right,0.4762433329888154,None,right,0.4762433329888154,0.7,1,234.80091674999858,234.80769295799837,234.80769295799837,234.80769295799837,234.80769295799837,236.78948858300282,NA,NA,236.7901403750002,236.7901708749996,None,236.79025449999608,236.7992572499934,237.79018787499808,237.78380729099445,234.29927683300048,,,,,,,,,,,34066,001,2025-10-31_10h19.03.562,regret_experiment,2024.2.4,None,2,0.5,0.2,0.7,2025-10-31 10h19.18.898007 -0700,
47,0,47,right,0.4495387920032954,None,None,,,47,0,47,0,237.79018787499808,,,,,,,,,237.78453974999138,237.79018787499808,5.370899452827871e-05,238.78344654099783,48,2,0.5,0.2,0.7,238.78413683299732,238.789585874998,238.789585874998,238.789585874998,238.789585874998,239.24074691599526,right,0.4495387920032954,None,right,0.4495387920032954,0.7,1,239.2530101250013,239.25991612499638,239.25991612499638,239.25991612499638,239.25991612499638,241.24876800000493,NA,NA,241.2494379580021,241.24956995800312,None,241.2496954160015,241.2538314160047,242.24802587500017,242.23797445799573,238.789585874998,,,,,,,,,,,34066,001,2025-10-31_10h19.03.562,regret_experiment,2024.2.4,None,2,0.5,0.2,0.7,2025-10-31 10h19.18.898007 -0700,
48,0,48,right,0.528868749999674,None,1,0.47193224998773076,None,48,0,48,0,242.24802587500017,,,,,,,,,242.23838108299242,242.24802587500017,0.003216082986909896,243.23267583300185,49,2,0.5,0.2,0.7,243.23299054100062,243.23817308299476,243.23817308299476,243.23817308299476,243.23817308299476,243.7749461659987,right,0.528868749999674,None,right,0.528868749999674,0.7,0,243.78859500000544,243.79559412499657,243.79559412499657,243.79559412499657,243.79559412499657,245.78167387499707,1,0.47193224998773076,245.7886200829962,246.2737932500022,1,246.27386050000496,246.4118865000055,,247.28253850000328,243.23817308299476,245.79862495799898,245.79862495799898,245.79862495799898,245.79862495799898,245.79862495799898,0.47193224998773076,None,,,,34066,001,2025-10-31_10h19.03.562,regret_experiment,2024.2.4,None,2,0.5,0.2,0.7,2025-10-31 10h19.18.898007 -0700,
49,0,49,left,0.6472951670002658,None,2,2.562016333991778,None,49,0,49,0,247.28939654100395,,,,,,,,,247.28311525000026,247.28939654100395,0.009295666997786611,248.2814981249976,50,2,0.5,0.2,0.7,248.28187308300403,248.28687537499354,248.28687537499354,248.28687537499354,248.28687537499354,248.9402280409995,left,0.6472951670002658,None,left,0.6472951670002658,0.5,0,248.95317066600546,248.96175462499377,248.96175462499377,248.96175462499377,248.96175462499377,250.9483039159968,2,2.562016333991778,250.95831866600201,253.53303533299186,2,253.53311020799447,253.53925637499196,254.53921295799955,254.53303991600114,,250.9645022909972,250.9645022909972,250.9645022909972,250.9645022909972,250.9645022909972,2.562016333991778,None,,,,34066,001,2025-10-31_10h19.03.562,regret_experiment,2024.2.4,None,2,0.5,0.2,0.7,2025-10-31 10h19.18.898007 -0700,
50,0,50,right,0.3554307919985149,None,None,,,50,0,50,0,254.53921295799955,,,,,,,,,254.53375937500095,254.53921295799955,0.0007062499935273081,255.53257891599787,51,2,0.5,0.2,0.7,255.53312566599925,255.53841249999823,255.53841249999823,255.53841249999823,255.53841249999823,255.89905683300458,right,0.3554307919985149,None,right,0.3554307919985149,0.7,1,255.9134076659975,255.92023229099868,255.92023229099868,255.92023229099868,255.92023229099868,257.9031212080008,NA,NA,257.90355870799976,257.9036158329982,None,257.9036743329925,257.91524200000276,258.9030059999932,258.89821779099293,255.53841249999823,,,,,,,,,,,34066,001,2025-10-31_10h19.03.562,regret_experiment,2024.2.4,None,2,0.5,0.2,0.7,2025-10-31 10h19.18.898007 -0700,
51,0,51,right,0.5078941660030978,None,None,,,51,0,51,0,258.9030059999932,,,,,,,,,258.89875808299985,258.9030059999932,-0.0006087499932618812,259.88822908299335,52,2,0.5,0.2,0.7,259.88857579100295,259.8982263329963,259.8982263329963,259.8982263329963,259.8982263329963,260.41829187500116,right,0.5078941660030978,None,right,0.5078941660030978,0.7,1,260.4307249160047,260.43759308299923,260.43759308299923,260.43759308299923,260.43759308299923,262.41997495800024,NA,NA,262.42053083299834,262.4205670829979,None,262.4206131249957,262.43166912499873,263.43153341600555,263.41990012499446,259.8982263329963,,,,,,,,,,,34066,001,2025-10-31_10h19.03.562,regret_experiment,2024.2.4,None,2,0.5,0.2,0.7,2025-10-31 10h19.18.898007 -0700,
52,0,52,right,0.39598383399425074,None,None,,,52,0,52,0,263.43153341600555,,,,,,,,,263.42032516599284,263.43153341600555,-0.0002544169983593747,264.4148836660024,53,2,0.5,0.2,0.7,264.41522237499885,264.42046349999146,264.42046349999146,264.42046349999146,264.42046349999146,264.82176562500536,right,0.39598383399425074,None,right,0.39598383399425074,0.7,1,264.83333641599165,264.8400537080015,264.8400537080015,264.8400537080015,264.8400537080015,266.8318898330035,NA,NA,266.83249812500435,266.83266025000194,None,266.8327763749985,266.8384602080041,267.838679708002,267.8323362079973,264.42046349999146,,,,,,,,,,,34066,001,2025-10-31_10h19.03.562,regret_experiment,2024.2.4,None,2,0.5,0.2,0.7,2025-10-31 10h19.18.898007 -0700,
53,0,53,right,0.9273411670001224,None,None,,,53,0,53,0,267.838679708002,,,,,,,,,267.833146666002,267.838679708002,0.0004505419929046184,268.83258241599833,54,2,0.5,0.2,0.7,268.8332376659964,268.8393906249985,268.8393906249985,268.8393906249985,268.8393906249985,269.7707858749927,right,0.9273411670001224,None,right,0.9273411670001224,0.7,1,269.78370408300543,269.7906559999974,269.7906559999974,269.7906559999974,269.7906559999974,271.7710605409957,NA,NA,271.7714845409937,271.77153174999694,None,271.77158395800507,271.7810476250015,272.76946762499574,272.7648221660056,268.8393906249985,,,,,,,,,,,34066,001,2025-10-31_10h19.03.562,regret_experiment,2024.2.4,None,2,0.5,0.2,0.7,2025-10-31 10h19.18.898007 -0700,
54,0,54,right,0.5487923750042683,None,None,,,54,0,54,0,272.76946762499574,,,,,,,,,272.76518708300136,272.76946762499574,0.010052249999716878,273.7525719580008,55,2,0.5,0.2,0.7,273.75286345799395,273.7686145829939,273.7686145829939,273.7686145829939,273.7686145829939,274.32286416599527,right,0.5487923750042683,None,right,0.5487923750042683,0.7,1,274.33413954099524,274.34139666600095,274.34139666600095,274.34139666600095,274.34139666600095,276.3311021660047,NA,NA,276.331400665993,276.33143362500414,None,276.3314844999986,276.33562195800187,277.3295688329963,277.3214671250025,273.76389595799264,,,,,,,,,,,34066,001,2025-10-31_10h19.03.562,regret_experiment,2024.2.4,None,2,0.5,0.2,0.7,2025-10-31 10h19.18.898007 -0700,
55,0,55,right,0.4836462079983903,None,None,,,55,0,55,0,277.3295688329963,,,,,,,,,277.321946415992,277.3295688329963,0.0029218749987194315,278.3153424579941,56,2,0.5,0.2,0.7,278.3157853750017,278.32184579099703,278.32184579099703,278.32184579099703,278.32184579099703,278.8147124579991,right,0.4836462079983903,None,right,0.4836462079983903,0.7,1,278.8261369160027,278.83276029099943,278.83276029099943,278.83276029099943,278.83276029099943,280.82034354099596,NA,NA,280.820753041,280.82079412500025,None,280.8208537079918,280.8307579579996,281.8184778750001,281.8137739160011,278.32184579099703,,,,,,,,,,,34066,001,2025-10-31_10h19.03.562,regret_experiment,2024.2.4,None,2,0.5,0.2,0.7,2025-10-31 10h19.18.898007 -0700,
56,0,56,right,0.5441929579974385,None,1,0.7842001670069294,None,56,0,56,0,281.8184778750001,,,,,,,,,281.8142455000052,281.8184778750001,0.010043082991614938,282.8026264999935,57,2,0.5,0.2,0.7,282.8031033330044,282.8209482499951,282.8209482499951,282.8209482499951,282.8209482499951,283.3709911659971,right,0.5441929579974385,None,right,0.5441929579974385,0.7,0,283.38523995799187,283.39193391600566,283.39193391600566,283.39193391600566,283.39193391600566,285.3811304999981,1,0.7842001670069294,285.3882770409982,286.1889214160037,1,286.1890093330003,286.19673487500404,287.1869963749923,287.18150287499884,282.81434654099576,285.397857916003,285.397857916003,285.397857916003,285.397857916003,285.397857916003,0.7842001670069294,None,,,,34066,001,2025-10-31_10h19.03.562,regret_experiment,2024.2.4,None,2,0.5,0.2,0.7,2025-10-31 10h19.18.898007 -0700,
57,0,57,right,0.38075004100392107,None,None,,,57,0,57,0,287.1869963749923,,,,,,,,,287.182275500003,287.1869963749923,0.00838220800505951,288.1711200830032,58,2,0.5,0.2,0.7,288.1714504160045,288.1858202500007,288.1858202500007,288.1858202500007,288.1858202500007,288.57024391599407,right,0.38075004100392107,None,right,0.38075004100392107,0.7,1,288.58225358299387,288.5891344160045,288.5891344160045,288.5891344160045,288.5891344160045,290.5706705409975,NA,NA,290.571107374999,290.57114737499796,None,290.5712152909982,290.5798319579917,291.5678262500005,291.56302641599905,288.17926970799454,,,,,,,,,,,34066,001,2025-10-31_10h19.03.562,regret_experiment,2024.2.4,None,2,0.5,0.2,0.7,2025-10-31 10h19.18.898007 -0700,
58,0,58,right,0.38658929101075046,None,None,,,58,0,58,0,291.5678262500005,,,,,,,,,291.56346420799673,291.5678262500005,0.009413040999788791,292.55283395800507,59,2,0.5,0.2,0.7,292.55315595799766,292.57031329099846,292.57031329099846,292.57031329099846,292.57031329099846,292.964728166,right,0.38658929101075046,None,right,0.38658929101075046,0.7,1,292.97596991600585,292.98261341599573,292.98261341599573,292.98261341599573,292.98261341599573,294.96816333300376,NA,NA,294.96933991600235,294.9694473330019,None,294.96956112499174,294.9796010830032,295.96976458300196,295.9637912079925,292.56402454100316,,,,,,,,,,,34066,001,2025-10-31_10h19.03.562,regret_experiment,2024.2.4,None,2,0.5,0.2,0.7,2025-10-31 10h19.18.898007 -0700,
59,0,59,right,0.4123812500038184,None,None,,,59,0,59,0,295.96976458300196,,,,,,,,,295.96452816600504,295.96976458300196,0.00032808400283101946,296.9634481249959,60,2,0.5,0.2,0.7,296.9638281660009,296.9689979579998,296.9689979579998,296.9689979579998,296.9689979579998,297.38682620799227,right,0.4123812500038184,None,right,0.4123812500038184,0.7,1,297.3999998749932,297.4073827079992,297.4073827079992,297.4073827079992,297.4073827079992,299.39609416600433,NA,NA,299.3964671249996,299.3965032499982,None,299.3965812910028,299.400685665998,300.43313849999686,300.38387458299985,296.9689979579998,,,,,,,,,,,34066,001,2025-10-31_10h19.03.562,regret_experiment,2024.2.4,None,2,0.5,0.2,0.7,2025-10-31 10h19.18.898007 -0700,
,,,,,,,,,,,,,,,,,,,,,,,,,,,,,,,,,,,,,,,,,,,,,,,,,,,,,,,,,,,,,,,,,,,N/A,300.4234047909995,300.43313849999686,,,,,,,,,,,,
