thisN,thisTrialN,thisRepN,key_resp_1.keys,key_resp_1.rt,key_resp_1.duration,regret_key.keys,regret_key.rt,regret_key.duration,trials.thisRepN,trials.thisTrialN,trials.thisN,trials.thisIndex,thisRow.t,notes,begin_exp.started,begin.started,advance_key.started,begin_exp.stopped,advance_key.keys,advance_key.rt,advance_key.duration,Fixation.started,fixcross.started,etRecord.started,Fixation.stopped,trial_num,participant_cond,prob_left,prob_up,prob_right,Choice.started,tree1_img.started,tree2_img.started,tree3_img.started,key_resp_1.started,Choice.stopped,trials.key_resp_1.keys,trials.key_resp_1.rt,trials.key_resp_1.duration,choice_key,choice_rt,choice_prob,points,Feedback.started,appleImage.started,tree1.started,tree2.started,tree3.started,Feedback.stopped,RegretRating.started,regret_scale.started,regret_key.started,rtree1.started,rtree2.started,rtree3.started,RegretRating.stopped,trials.regret_key.keys,trials.regret_key.rt,trials.regret_key.duration,regret_rating,regret_rt,ITI.started,blank_screen.started,ITI.stopped,blank_screen.stopped,fixcross.stopped,avg_regret,EndScreen.started,end_display.started,participant,session,date,expName,psychopyVersion,frameRate,participant_cond,prob_left,prob_up,prob_right,expStart,
,,,,,,,,,,,,,,,0.06704766699112952,0.098031000001356,0.098031000001356,3.9707992500043474,space,3.761462875001598,None,,,,,,1,0.5,0.7,0.2,,,,,,,,,,,,,,,,,,,,,,,,,,,,,,,,,,,,,,,,34108,001,2025-11-07_09h18.18.472,regret_experiment,2024.2.4,None,1,0.5,0.7,0.2,2025-11-07 09h18.34.424365 -0800,
0,0,0,left,1.7166950420069043,None,3,2.0442138749931473,None,0,0,0,0,4.612686834007036,,,,,,,,,3.977001499995822,4.612686834007036,0.006183499994222075,4.98033041699091,1,1,0.5,0.7,0.2,4.980723209009739,4.992162000009557,4.992162000009557,4.992162000009557,4.992162000009557,6.714643334009452,left,1.7166950420069043,None,left,1.7166950420069043,0.5,0,6.744222459004959,6.7596401250048075,6.7596401250048075,6.7596401250048075,6.7596401250048075,8.71907720901072,8.727869624999585,8.738198917009868,8.738198917009868,8.738198917009868,8.738198917009868,8.738198917009868,10.78867170898593,3,2.0442138749931473,None,3,2.0442138749931473,10.789413999998942,10.834717791993171,11.79730429200572,,,,,,34108,001,2025-11-07_09h18.18.472,regret_experiment,2024.2.4,None,1,0.5,0.7,0.2,2025-11-07 09h18.34.424365 -0800,
1,0,1,up,1.5675612080085557,None,None,,,1,0,1,0,11.804545749997487,,,,,,,,,11.798295166983735,11.804545749997487,0.009575292002409697,12.798051791993203,2,1,0.5,0.7,0.2,12.798682333988836,12.805141541990452,12.805141541990452,12.805141541990452,12.805141541990452,14.383016584004508,up,1.5675612080085557,None,up,1.5675612080085557,0.7,1,14.415423708996968,14.433625834004488,14.433625834004488,14.433625834004488,14.433625834004488,16.387294833984924,16.387879124988103,,,,,,16.38794675000827,None,,,NA,NA,16.388120874995366,16.39653116700356,17.38170829199953,17.38897691699094,,,,,34108,001,2025-11-07_09h18.18.472,regret_experiment,2024.2.4,None,1,0.5,0.7,0.2,2025-11-07 09h18.34.424365 -0800,
2,0,2,right,1.1529102080094162,None,3,1.9631077079975512,None,2,0,2,0,17.38897691699094,,,,,,,,,17.382244292006362,17.38897691699094,0.0010440830083098263,18.380980166984955,3,1,0.5,0.7,0.2,18.381245124997804,18.38792579199071,18.38792579199071,18.38792579199071,18.38792579199071,19.57834800001001,right,1.1529102080094162,None,right,1.1529102080094162,0.2,0,19.60724341700552,19.721853083989117,19.721853083989117,19.721853083989117,19.721853083989117,21.578875709004933,21.585743667004863,21.593543958995724,21.593543958995724,21.593543958995724,21.593543958995724,21.593543958995724,23.56471579198842,3,1.9631077079975512,None,3,1.9631077079975512,23.564878999983193,23.7522677090019,24.568884084001184,,18.38792579199071,,,,34108,001,2025-11-07_09h18.18.472,regret_experiment,2024.2.4,None,1,0.5,0.7,0.2,2025-11-07 09h18.34.424365 -0800,
3,0,3,left,1.0819823750061914,None,None,,,3,0,3,0,24.580096791993128,,,,,,,,,24.569949291995727,24.580096791993128,0.005238041980192065,25.563129333982943,4,1,0.5,0.7,0.2,25.563493624998955,25.57050224998966,25.57050224998966,25.57050224998966,25.57050224998966,26.664385666983435,left,1.0819823750061914,None,left,1.0819823750061914,0.5,1,26.680424749996746,26.6939854589873,26.6939854589873,26.6939854589873,26.6939854589873,28.6682574590086,28.66910349999671,,,,,,28.669207166996785,None,,,NA,NA,28.669356124999467,28.679710249998607,29.667981125006918,29.679219209006988,25.57050224998966,,,,34108,001,2025-11-07_09h18.18.472,regret_experiment,2024.2.4,None,1,0.5,0.7,0.2,2025-11-07 09h18.34.424365 -0800,
4,0,4,left,1.0605477500066627,None,3,1.2482511659909505,None,4,0,4,0,29.679219209006988,,,,,,,,,29.668382333999034,29.679219209006988,-0.0009029160137288272,30.66434341701097,5,1,0.5,0.7,0.2,30.664651541999774,30.67172854198725,30.67172854198725,30.67172854198725,30.67172854198725,31.735540791996755,left,1.0605477500066627,None,left,1.0605477500066627,0.5,0,31.752358124998864,31.89687020899146,31.89687020899146,31.89687020899146,31.89687020899146,33.73624004199519,33.747241667006165,33.75692054198589,33.75692054198589,33.75692054198589,33.75692054198589,33.75692054198589,35.01518787498935,3,1.2482511659909505,None,3,1.2482511659909505,35.01544466699124,35.237994750001235,36.0180262500071,,30.67172854198725,,,,34108,001,2025-11-07_09h18.18.472,regret_experiment,2024.2.4,None,1,0.5,0.7,0.2,2025-11-07 09h18.34.424365 -0800,
5,0,5,up,0.6005316250084434,None,None,,,5,0,5,0,36.02945083400118,,,,,,,,,36.01879691699287,36.02945083400118,0.003481749998172745,37.013338583987206,6,1,0.5,0.7,0.2,37.013626875006594,37.01932341698557,37.01932341698557,37.01932341698557,37.01932341698557,37.62204095898778,up,0.6005316250084434,None,up,0.6005316250084434,0.7,1,37.64380454199272,37.65494145901175,37.65494145901175,37.65494145901175,37.65494145901175,39.62896879200707,39.629375416989205,,,,,,39.62941291698371,None,,,NA,NA,39.62946158400155,39.63427291699918,40.61861850001151,40.630316374998074,37.01932341698557,,,,34108,001,2025-11-07_09h18.18.472,regret_experiment,2024.2.4,None,1,0.5,0.7,0.2,2025-11-07 09h18.34.424365 -0800,
6,0,6,right,0.7676809169934131,None,3,1.3433549579931423,None,6,0,6,0,40.630316374998074,,,,,,,,,40.61916737499996,40.630316374998074,0.0010595830099191517,41.61311208398547,7,1,0.5,0.7,0.2,41.613415166997584,41.618989334005164,41.618989334005164,41.618989334005164,41.618989334005164,42.39700916700531,right,0.7676809169934131,None,right,0.7676809169934131,0.2,0,42.41212754198932,42.42172045900952,42.42172045900952,42.42172045900952,42.42172045900952,44.403125791985076,44.41378470900236,44.42101254200679,44.42101254200679,44.42101254200679,44.42101254200679,44.42101254200679,45.76984508399619,3,1.3433549579931423,None,3,1.3433549579931423,45.770040750008775,45.830454417009605,46.779405624984065,,41.618989334005164,,,,34108,001,2025-11-07_09h18.18.472,regret_experiment,2024.2.4,None,1,0.5,0.7,0.2,2025-11-07 09h18.34.424365 -0800,
7,0,7,up,0.9860715420218185,None,None,,,7,0,7,0,46.78493508399697,,,,,,,,,46.77981708399602,46.78493508399697,0.00986675001331605,47.76883149999776,8,1,0.5,0.7,0.2,47.76912195899058,47.77819787498447,47.77819787498447,47.77819787498447,47.77819787498447,48.76957050000783,up,0.9860715420218185,None,up,0.9860715420218185,0.7,1,48.78943220898509,48.79707404199871,48.79707404199871,48.79707404199871,48.79707404199871,50.77930429199478,50.78029537500697,,,,,,50.78048962500179,None,,,NA,NA,50.78091400000267,50.7862268339959,51.779893583996454,51.786308791983174,47.77819787498447,,,,34108,001,2025-11-07_09h18.18.472,regret_experiment,2024.2.4,None,1,0.5,0.7,0.2,2025-11-07 09h18.34.424365 -0800,
8,0,8,left,0.8001901250099763,None,None,,,8,0,8,0,51.786308791983174,,,,,,,,,51.78110179200303,51.786308791983174,0.000398541014874354,52.77818741698866,9,1,0.5,0.7,0.2,52.77882308399421,52.78408029201091,52.78408029201091,52.78408029201091,52.78408029201091,53.5887945840077,left,0.8001901250099763,None,left,0.8001901250099763,0.5,1,53.60502899999847,53.61453141699894,53.61453141699894,53.61453141699894,53.61453141699894,55.59513654198963,55.59547100000782,,,,,,55.59550341698923,None,,,NA,NA,55.59555366699351,55.599796958995285,56.583180791989435,56.5951877500047,52.78408029201091,,,,34108,001,2025-11-07_09h18.18.472,regret_experiment,2024.2.4,None,1,0.5,0.7,0.2,2025-11-07 09h18.34.424365 -0800,
9,0,9,up,0.4859247089771088,None,None,,,9,0,9,0,56.5951877500047,,,,,,,,,56.58352687500883,56.5951877500047,-0.0002922500134445727,57.58125120899058,10,1,0.5,0.7,0.2,57.5818565840018,57.58881112499512,57.58881112499512,57.58881112499512,57.58881112499512,58.081230417010374,up,0.4859247089771088,None,up,0.4859247089771088,0.7,1,58.09999300001073,58.11027166698477,58.11027166698477,58.11027166698477,58.11027166698477,60.083847792004235,60.084511749999365,,,,,,60.084566042001825,None,,,NA,NA,60.08529720900697,60.09551745900535,61.07968645900837,61.08807733398862,57.58881112499512,,,,34108,001,2025-11-07_09h18.18.472,regret_experiment,2024.2.4,None,1,0.5,0.7,0.2,2025-11-07 09h18.34.424365 -0800,
10,0,10,right,0.5025354999816045,None,2,1.0661870000185445,None,10,0,10,0,61.08807733398862,,,,,,,,,61.080356208985904,61.08807733398862,0.003573958994820714,62.07935312500922,11,1,0.5,0.7,0.2,62.07961612500367,62.08649183399393,62.08649183399393,62.08649183399393,62.08649183399393,62.632406458986225,right,0.5025354999816045,None,right,0.5025354999816045,0.2,0,62.67612041698885,62.86136129198712,62.86136129198712,62.86136129198712,62.86136129198712,64.63508154198644,64.64413187498576,64.65146670900867,64.65146670900867,64.65146670900867,64.65146670900867,64.65146670900867,65.72856070898706,2,1.0661870000185445,None,2,1.0661870000185445,65.72934091699426,65.86046324999188,66.73257862500031,,62.08649183399393,,,,34108,001,2025-11-07_09h18.18.472,regret_experiment,2024.2.4,None,1,0.5,0.7,0.2,2025-11-07 09h18.34.424365 -0800,
11,0,11,up,0.5536647090048064,None,None,,,11,0,11,0,66.74499712500256,,,,,,,,,66.73327666698606,66.74499712500256,0.0045693749852944165,67.72882787499111,12,1,0.5,0.7,0.2,67.729397084011,67.73713604200748,67.73713604200748,67.73713604200748,67.73713604200748,68.29695466699195,up,0.5536647090048064,None,up,0.5536647090048064,0.7,1,68.31224274999113,68.32317474999581,68.32317474999581,68.32317474999581,68.32317474999581,70.3008905419847,70.30156154200085,,,,,,70.30160587499267,None,,,NA,NA,70.30167637500563,70.31138329199166,71.29443000000902,71.3012610419828,,,,,34108,001,2025-11-07_09h18.18.472,regret_experiment,2024.2.4,None,1,0.5,0.7,0.2,2025-11-07 09h18.34.424365 -0800,
12,0,12,left,0.548415750003187,None,None,,,12,0,12,0,71.3012610419828,,,,,,,,,71.29599566699471,71.3012610419828,-0.0003206669935025275,72.29579937498784,13,1,0.5,0.7,0.2,72.29662783400272,72.302324416989,72.302324416989,72.302324416989,72.302324416989,72.86324141698424,left,0.548415750003187,None,left,0.548415750003187,0.5,1,72.88007133398787,72.8879495000001,72.8879495000001,72.8879495000001,72.8879495000001,74.86575045899372,74.86610433401074,,,,,,74.86615945899393,None,,,NA,NA,74.86627349999617,74.87784383399412,75.86061587498989,75.86529091699049,72.302324416989,,,,34108,001,2025-11-07_09h18.18.472,regret_experiment,2024.2.4,None,1,0.5,0.7,0.2,2025-11-07 09h18.34.424365 -0800,
13,0,13,up,0.5091678340104409,None,None,,,13,0,13,0,75.86529091699049,,,,,,,,,75.86109066699282,75.86529091699049,-0.0008940830011852086,76.85102520900546,14,1,0.5,0.7,0.2,76.85142604200519,76.86145512500661,76.86145512500661,76.86145512500661,76.86145512500661,77.37611804201151,up,0.5091678340104409,None,up,0.5091678340104409,0.7,1,77.39548179198755,77.40544791700086,77.40544791700086,77.40544791700086,77.40544791700086,79.37797154200962,79.37846750000608,,,,,,79.37851920898538,None,,,NA,NA,79.37870750000002,79.38336716699996,80.37773220898816,80.38347283398616,76.86145512500661,,,,34108,001,2025-11-07_09h18.18.472,regret_experiment,2024.2.4,None,1,0.5,0.7,0.2,2025-11-07 09h18.34.424365 -0800,
14,0,14,left,0.4825636660098098,None,None,,,14,0,14,0,80.38347283398616,,,,,,,,,80.37820095900679,80.38347283398616,-0.0003972920239903033,81.37904383399291,15,1,0.5,0.7,0.2,81.3793362499855,81.3845726249856,81.3845726249856,81.3845726249856,81.3845726249856,81.87883000000147,left,0.4825636660098098,None,left,0.4825636660098098,0.5,1,81.89359420898836,81.90136508399155,81.90136508399155,81.90136508399155,81.90136508399155,83.88262958399719,83.88335275001009,,,,,,83.88346508398536,None,,,NA,NA,83.88358870899538,83.8934632090095,84.87877083400963,84.8850949589978,81.3845726249856,,,,34108,001,2025-11-07_09h18.18.472,regret_experiment,2024.2.4,None,1,0.5,0.7,0.2,2025-11-07 09h18.34.424365 -0800,
15,0,15,up,0.45075520800310187,None,None,,,15,0,15,0,84.8850949589978,,,,,,,,,84.88019091699971,84.8850949589978,0.0016212080081459135,85.88026870900649,16,1,0.5,0.7,0.2,85.88064183399547,85.88588166699628,85.88588166699628,85.88588166699628,85.88588166699628,86.34649966700817,up,0.45075520800310187,None,up,0.45075520800310187,0.7,1,86.36411195900291,86.37063716698322,86.37063716698322,86.37063716698322,86.37063716698322,88.35080941699562,88.35123779199785,,,,,,88.35128558400902,None,,,NA,NA,88.35134200000903,88.35994683401077,89.34515083400765,89.35158354201121,85.88588166699628,,,,34108,001,2025-11-07_09h18.18.472,regret_experiment,2024.2.4,None,1,0.5,0.7,0.2,2025-11-07 09h18.34.424365 -0800,
16,0,16,left,0.6683614999928977,None,None,,,16,0,16,0,89.35158354201121,,,,,,,,,89.3461925839947,89.35158354201121,0.00033533398527652025,90.34383579200949,17,1,0.5,0.7,0.2,90.34409395899274,90.3492127500067,90.3492127500067,90.3492127500067,90.3492127500067,91.01929799999925,left,0.6683614999928977,None,left,0.6683614999928977,0.5,1,91.03381583400187,91.04284566699062,91.04284566699062,91.04284566699062,91.04284566699062,93.02740504199755,93.0280583339918,,,,,,93.02816345900646,None,,,NA,NA,93.02828674999182,93.03399445899413,94.02731599999242,94.0344819999882,90.3492127500067,,,,34108,001,2025-11-07_09h18.18.472,regret_experiment,2024.2.4,None,1,0.5,0.7,0.2,2025-11-07 09h18.34.424365 -0800,
17,0,17,up,0.3681193749944214,None,None,,,17,0,17,0,94.0344819999882,,,,,,,,,94.02775041700806,94.0344819999882,-0.0004716250114142895,95.01729095898918,18,1,0.5,0.7,0.2,95.01758454198716,95.02688558399677,95.02688558399677,95.02688558399677,95.02688558399677,95.40011254200363,up,0.3681193749944214,None,up,0.3681193749944214,0.7,1,95.4141904170101,95.42310949999955,95.42310949999955,95.42310949999955,95.42310949999955,97.41014454199467,97.41045620900695,,,,,,97.41049204199226,None,,,NA,NA,97.41053937500692,97.41469883400714,98.39999999999418,98.40929162499378,95.02688558399677,,,,34108,001,2025-11-07_09h18.18.472,regret_experiment,2024.2.4,None,1,0.5,0.7,0.2,2025-11-07 09h18.34.424365 -0800,
18,0,18,left,0.31779154200921766,None,2,0.6657753750041593,None,18,0,18,0,98.40929162499378,,,,,,,,,98.40108091698494,98.40929162499378,0.003689915989525616,99.39488708399585,19,1,0.5,0.7,0.2,99.39597483398393,99.40214525000192,99.40214525000192,99.40214525000192,99.40214525000192,99.72714450000785,left,0.31779154200921766,None,left,0.31779154200921766,0.5,0,99.7420948339859,99.74909062500228,99.74909062500228,99.74909062500228,99.74909062500228,101.73335358398617,101.74214891699376,101.75157108399435,101.75157108399435,101.75157108399435,101.75157108399435,101.75157108399435,102.42840787500609,2,0.6657753750041593,None,2,0.6657753750041593,102.42855083401082,102.56722791699576,103.43093570900965,,99.40214525000192,,,,34108,001,2025-11-07_09h18.18.472,regret_experiment,2024.2.4,None,1,0.5,0.7,0.2,2025-11-07 09h18.34.424365 -0800,
19,0,19,up,0.42414045901387,None,None,,,19,0,19,0,103.44316562500899,,,,,,,,,103.43151383398799,103.44316562500899,0.0030334579932969064,104.42683058400871,20,1,0.5,0.7,0.2,104.42710479200468,104.432114833995,104.432114833995,104.432114833995,104.432114833995,104.86184262498864,up,0.42414045901387,None,up,0.42414045901387,0.7,1,104.87490391699248,104.88199075000011,104.88199075000011,104.88199075000011,104.88199075000011,106.86556825001026,106.86598058399977,,,,,,106.86604225001065,None,,,NA,NA,106.86610683400068,106.87608016698505,107.85972533398308,107.86437520899926,104.432114833995,,,,34108,001,2025-11-07_09h18.18.472,regret_experiment,2024.2.4,None,1,0.5,0.7,0.2,2025-11-07 09h18.34.424365 -0800,
20,0,20,right,0.33673325000563636,None,2,1.7691853749856818,None,20,0,20,0,107.86437520899926,,,,,,,,,107.86011312500341,107.86437520899926,0.008774125017225742,108.8479558750114,21,1,0.5,0.7,0.2,108.84842733398546,108.86397674999898,108.86397674999898,108.86397674999898,108.86397674999898,109.21047516699764,right,0.33673325000563636,None,right,0.33673325000563636,0.2,0,109.225222167006,109.23222787500708,109.23222787500708,109.23222787500708,109.23222787500708,111.2162217090081,111.22411916698911,111.23138154199114,111.23138154199114,111.23138154199114,111.23138154199114,111.23138154199114,113.01317091699457,2,1.7691853749856818,None,2,1.7691853749856818,113.01323712500744,113.02527199999895,114.008805999998,114.01352416700684,108.8593210419931,,,,34108,001,2025-11-07_09h18.18.472,regret_experiment,2024.2.4,None,1,0.5,0.7,0.2,2025-11-07 09h18.34.424365 -0800,
21,0,21,up,0.48640579197672196,None,2,0.9611250410089269,None,21,0,21,0,114.01352416700684,,,,,,,,,114.00933079200331,114.01352416700684,0.0003571669803932309,114.99861908398452,22,1,0.5,0.7,0.2,114.99891950000892,115.00929420898319,115.00929420898319,115.00929420898319,115.00929420898319,115.50165983400075,up,0.48640579197672196,None,up,0.48640579197672196,0.7,0,115.51616150001064,115.52359208400594,115.52359208400594,115.52359208400594,115.52359208400594,117.5095769999898,117.51874345898977,117.52645158400992,117.52645158400992,117.52645158400992,117.52645158400992,117.52645158400992,118.49294587498298,2,0.9611250410089269,None,2,0.9611250410089269,118.49302291698405,118.49748295900645,119.48288641698309,119.49235687500914,115.00929420898319,,,,34108,001,2025-11-07_09h18.18.472,regret_experiment,2024.2.4,None,1,0.5,0.7,0.2,2025-11-07 09h18.34.424365 -0800,
22,0,22,up,0.3336248749983497,None,None,,,22,0,22,0,119.49235687500914,,,,,,,,,119.48372183399624,119.49235687500914,-0.0005265409999992698,120.4771114999894,23,1,0.5,0.7,0.2,120.47769370899186,120.48331237499951,120.48331237499951,120.48331237499951,120.48331237499951,120.8269754590001,up,0.3336248749983497,None,up,0.3336248749983497,0.7,1,120.84109420899767,120.84848979199887,120.84848979199887,120.84848979199887,120.84848979199887,122.83127633400727,122.8317954170052,,,,,,122.83184483399964,None,,,NA,NA,122.83195629200782,122.84221862500999,123.82551683401107,123.83068424998783,120.48331237499951,,,,34108,001,2025-11-07_09h18.18.472,regret_experiment,2024.2.4,None,1,0.5,0.7,0.2,2025-11-07 09h18.34.424365 -0800,
23,0,23,up,0.5183377500216011,None,None,,,23,0,23,0,123.83068424998783,,,,,,,,,123.82598233400495,123.83068424998783,0.009064332989510149,124.81500558400876,24,1,0.5,0.7,0.2,124.81530495898915,124.82549262500834,124.82549262500834,124.82549262500834,124.82549262500834,125.35255308399792,up,0.5183377500216011,None,up,0.5183377500216011,0.7,1,125.38021554198349,125.3965455419966,125.3965455419966,125.3965455419966,125.3965455419966,127.35911095899064,127.36014508400694,,,,,,127.36019995898823,None,,,NA,NA,127.36025316698942,127.36519466698519,128.3486750840093,128.35872650000965,124.82549262500834,,,,34108,001,2025-11-07_09h18.18.472,regret_experiment,2024.2.4,None,1,0.5,0.7,0.2,2025-11-07 09h18.34.424365 -0800,
24,0,24,up,0.3206521249958314,None,None,,,24,0,24,0,128.35872650000965,,,,,,,,,128.34903608399327,128.35872650000965,0.002960124984383583,129.34568391699577,25,1,0.5,0.7,0.2,129.34598716700566,129.35859845898813,129.35859845898813,129.35859845898813,129.35859845898813,129.68153199998778,up,0.3206521249958314,None,up,0.3206521249958314,0.7,1,129.69468733400572,129.7018852919864,129.7018852919864,129.7018852919864,129.7018852919864,131.69132124999305,131.69166437498643,,,,,,131.69169245898956,None,,,NA,NA,131.6917406670109,131.6961176249897,132.68114104200504,132.6917334169848,129.35859845898813,,,,34108,001,2025-11-07_09h18.18.472,regret_experiment,2024.2.4,None,1,0.5,0.7,0.2,2025-11-07 09h18.34.424365 -0800,
25,0,25,up,0.34489120898069814,None,None,,,25,0,25,0,132.6917334169848,,,,,,,,,132.68155849998584,132.6917334169848,5.07089716847986e-05,133.67629783399752,26,1,0.5,0.7,0.2,133.67694725000183,133.68199045900838,133.68199045900838,133.68199045900838,133.68199045900838,134.03152754198527,up,0.34489120898069814,None,up,0.34489120898069814,0.7,1,134.043154916988,134.05055579199689,134.05055579199689,134.05055579199689,134.05055579199689,136.0417520419869,136.04230425000424,,,,,,136.04241483399528,None,,,NA,NA,136.04254204200697,136.04867512499914,137.04208083398407,137.04744125000434,133.68199045900838,,,,34108,001,2025-11-07_09h18.18.472,regret_experiment,2024.2.4,None,1,0.5,0.7,0.2,2025-11-07 09h18.34.424365 -0800,
26,0,26,up,0.6212293340067845,None,2,1.517931167007191,None,26,0,26,0,137.04744125000434,,,,,,,,,137.0424637919932,137.04744125000434,-1.0666000889614224e-05,138.03215079198708,27,1,0.5,0.7,0.2,138.03244845900917,138.04159245899064,138.04159245899064,138.04159245899064,138.04159245899064,138.6644145839964,up,0.6212293340067845,None,up,0.6212293340067845,0.7,0,138.677479209,138.68418549999478,138.68418549999478,138.68418549999478,138.68418549999478,140.67431170900818,140.6826708749868,140.69221770900185,140.69221770900185,140.69221770900185,140.69221770900185,140.69221770900185,142.21417945899884,2,1.517931167007191,None,2,1.517931167007191,142.21424379199743,142.22337170899846,143.20861783399596,143.21414179200656,138.04159245899064,,,,34108,001,2025-11-07_09h18.18.472,regret_experiment,2024.2.4,None,1,0.5,0.7,0.2,2025-11-07 09h18.34.424365 -0800,
27,0,27,up,0.45500162499956787,None,None,,,27,0,27,0,143.21414179200656,,,,,,,,,143.20898666698486,143.21414179200656,3.4374999813735485e-05,144.1972622089961,28,1,0.5,0.7,0.2,144.19756770899403,144.20819579198724,144.20819579198724,144.20819579198724,144.20819579198724,144.66535991700948,up,0.45500162499956787,None,up,0.45500162499956787,0.7,1,144.67836399999214,144.68655066698557,144.68655066698557,144.68655066698557,144.68655066698557,146.67471250001108,146.67577983401134,,,,,,146.67589487499208,None,,,NA,NA,146.67600916698575,146.68135708398768,147.67617912500282,147.68163833400467,144.20819579198724,,,,34108,001,2025-11-07_09h18.18.472,regret_experiment,2024.2.4,None,1,0.5,0.7,0.2,2025-11-07 09h18.34.424365 -0800,
28,0,28,left,0.31315433300915174,None,None,,,28,0,28,0,147.68163833400467,,,,,,,,,147.6766051669838,147.68163833400467,0.0006541670009028167,148.67476804199396,29,1,0.5,0.7,0.2,148.67505266700755,148.68004279199522,148.68004279199522,148.68004279199522,148.68004279199522,148.99703554200823,left,0.31315433300915174,None,left,0.31315433300915174,0.5,1,149.0105557089846,149.02047550000134,149.02047550000134,149.02047550000134,149.02047550000134,150.99747916701017,150.9979097089963,,,,,,150.99794870900223,None,,,NA,NA,150.99800245900406,151.00771229199017,151.99126033400535,151.9960782499984,148.68004279199522,,,,34108,001,2025-11-07_09h18.18.472,regret_experiment,2024.2.4,None,1,0.5,0.7,0.2,2025-11-07 09h18.34.424365 -0800,
29,0,29,up,0.6953186249884311,None,2,1.1635182500176597,None,29,0,29,0,151.9960782499984,,,,,,,,,151.99163591698743,151.9960782499984,0.009797292004805058,152.98059258400463,30,1,0.5,0.7,0.2,152.98091279200162,152.99816154199652,152.99816154199652,152.99816154199652,152.99816154199652,153.69742045900784,up,0.6953186249884311,None,up,0.6953186249884311,0.7,0,153.71338137501152,153.72008724999614,153.72008724999614,153.72008724999614,153.72008724999614,155.70774529199116,155.7147980419977,155.7224005839962,155.7224005839962,155.7224005839962,155.7224005839962,155.7224005839962,157.1726317499997,2,1.1635182500176597,None,2,1.1635182500176597,157.17271362498286,157.1815878750058,158.17474116699304,,152.9913267499942,,,,34108,001,2025-11-07_09h18.18.472,regret_experiment,2024.2.4,None,1,0.5,0.7,0.2,2025-11-07 09h18.34.424365 -0800,
30,0,30,right,0.32229145799647085,None,None,,,30,0,30,0,158.1909481670009,,,,,,,,,158.17525604198454,158.1909481670009,0.0025954159791581333,159.17405754199717,31,1,0.5,0.7,0.2,159.17435037498944,159.1792577090091,159.1792577090091,159.1792577090091,159.1792577090091,159.51039191699238,right,0.32229145799647085,None,right,0.32229145799647085,0.2,0,159.5254367919988,159.53338300000178,159.53338300000178,159.53338300000178,159.53338300000178,161.5136329169909,161.51430275000166,,,,,,161.51439629198285,None,,,NA,NA,161.51457229198422,161.52325383399148,162.5059856250009,162.51062470898614,,,,,34108,001,2025-11-07_09h18.18.472,regret_experiment,2024.2.4,None,1,0.5,0.7,0.2,2025-11-07 09h18.34.424365 -0800,
31,0,31,up,0.5606714999885298,None,None,,,31,0,31,0,162.51062470898614,,,,,,,,,162.50643141698674,162.51062470898614,0.008544875017832965,163.49702516698744,32,1,0.5,0.7,0.2,163.4975283340027,163.51626075000968,163.51626075000968,163.51626075000968,163.51626075000968,164.0812057919975,up,0.5606714999885298,None,up,0.5606714999885298,0.7,1,164.09654579201015,164.10438458400313,164.10438458400313,164.10438458400313,164.10438458400313,166.08961200001067,166.0900916249957,,,,,,166.09012879198417,None,,,NA,NA,166.09019074999378,166.09472691698465,167.0786350420094,167.0902442089864,163.5068166249839,,,,34108,001,2025-11-07_09h18.18.472,regret_experiment,2024.2.4,None,1,0.5,0.7,0.2,2025-11-07 09h18.34.424365 -0800,
32,0,32,left,0.4938150410016533,None,None,,,32,0,32,0,167.0902442089864,,,,,,,,,167.07930112499162,167.0902442089864,0.00012258297647349536,168.07467400000314,33,1,0.5,0.7,0.2,168.07514025000273,168.0815320420079,168.0815320420079,168.0815320420079,168.0815320420079,168.5800764169835,left,0.4938150410016533,None,left,0.4938150410016533,0.5,0,168.59658499999205,168.603338624991,168.603338624991,168.603338624991,168.603338624991,170.5905760419846,170.59114495900576,,,,,,170.59126487499452,None,,,NA,NA,170.59139979199972,170.59679566699197,171.59035725001013,171.5952972919913,168.0815320420079,,,,34108,001,2025-11-07_09h18.18.472,regret_experiment,2024.2.4,None,1,0.5,0.7,0.2,2025-11-07 09h18.34.424365 -0800,
33,0,33,up,0.5679931250051595,None,None,,,33,0,33,0,171.5952972919913,,,,,,,,,171.59069733400247,171.5952972919913,-0.0006378749967552722,172.57934091700008,34,1,0.5,0.7,0.2,172.57962129201042,172.59011616700445,172.59011616700445,172.59011616700445,172.59011616700445,173.16263445900404,up,0.5679931250051595,None,up,0.5679931250051595,0.7,1,173.1746904590109,173.18130933400244,173.18130933400244,173.18130933400244,173.18130933400244,175.173864374985,175.1745405420079,,,,,,175.17466333400807,None,,,NA,NA,175.17478816700168,175.1804166669899,176.1740406669851,176.1807832919876,172.59011616700445,,,,34108,001,2025-11-07_09h18.18.472,regret_experiment,2024.2.4,None,1,0.5,0.7,0.2,2025-11-07 09h18.34.424365 -0800,
34,0,34,up,0.3222001660033129,None,None,,,34,0,34,0,176.1807832919876,,,,,,,,,176.17495183399296,176.1807832919876,0.00024900000425986946,177.1732807919907,35,1,0.5,0.7,0.2,177.17355095900712,177.17890308398637,177.17890308398637,177.17890308398637,177.17890308398637,177.50807787498343,up,0.3222001660033129,None,up,0.3222001660033129,0.7,1,177.52115829198738,177.53462791698985,177.53462791698985,177.53462791698985,177.53462791698985,179.51279504198465,179.51317724998808,,,,,,179.51322454199544,None,,,NA,NA,179.51330595900072,179.52297979200375,180.50721566699212,180.51384720898932,177.17890308398637,,,,34108,001,2025-11-07_09h18.18.472,regret_experiment,2024.2.4,None,1,0.5,0.7,0.2,2025-11-07 09h18.34.424365 -0800,
35,0,35,up,0.33439675002591684,None,None,,,35,0,35,0,180.51384720898932,,,,,,,,,180.50793133399566,180.51384720898932,0.0006606669921893626,181.50663133399212,36,1,0.5,0.7,0.2,181.5068929590052,181.5116497919953,181.5116497919953,181.5116497919953,181.5116497919953,181.84946816699812,up,0.33439675002591684,None,up,0.33439675002591684,0.7,1,181.86248533398611,181.8699991669855,181.8699991669855,181.8699991669855,181.8699991669855,183.85655608400702,183.85725729199476,,,,,,183.85735141698387,None,,,NA,NA,183.85748891698313,183.86285204198794,184.85645820898935,184.86252012499608,181.5116497919953,,,,34108,001,2025-11-07_09h18.18.472,regret_experiment,2024.2.4,None,1,0.5,0.7,0.2,2025-11-07 09h18.34.424365 -0800,
36,0,36,up,0.3854390410124324,None,None,,,36,0,36,0,184.86252012499608,,,,,,,,,184.85717795899836,184.86252012499608,-0.0002219580055680126,185.84580983399064,37,1,0.5,0.7,0.2,185.84609450001153,185.85585791699123,185.85585791699123,185.85585791699123,185.85585791699123,186.24560266701155,up,0.3854390410124324,None,up,0.3854390410124324,0.7,1,186.26040854200255,186.27208862500265,186.27208862500265,186.27208862500265,186.27208862500265,188.25597608400858,188.2563000000082,,,,,,188.25633425000706,None,,,NA,NA,188.25639299998875,188.2605467090034,189.24482820898993,189.25559195899405,185.85585791699123,,,,34108,001,2025-11-07_09h18.18.472,regret_experiment,2024.2.4,None,1,0.5,0.7,0.2,2025-11-07 09h18.34.424365 -0800,
37,0,37,up,0.4603077080100775,None,None,,,37,0,37,0,189.25559195899405,,,,,,,,,189.24523670898634,189.25559195899405,-0.000738375005312264,190.2387252089975,38,1,0.5,0.7,0.2,190.23901895899326,190.25557245899108,190.25557245899108,190.25557245899108,190.25557245899108,190.72335233399644,up,0.4603077080100775,None,up,0.4603077080100775,0.7,1,190.73620266700163,190.74430900000152,190.74430900000152,190.74430900000152,190.74430900000152,192.72893962499802,192.72937516699312,,,,,,192.7294154590054,None,,,NA,NA,192.7294871250051,192.73914741698536,193.72339174998342,193.72960912500275,190.2431548750028,,,,34108,001,2025-11-07_09h18.18.472,regret_experiment,2024.2.4,None,1,0.5,0.7,0.2,2025-11-07 09h18.34.424365 -0800,
38,0,38,up,0.36218462500255555,None,None,,,38,0,38,0,193.72960912500275,,,,,,,,,193.72448954198626,193.72960912500275,0.00023216698900796473,194.72342204200686,39,1,0.5,0.7,0.2,194.72405874999822,194.72971675000736,194.72971675000736,194.72971675000736,194.72971675000736,195.09852166700875,up,0.36218462500255555,None,up,0.36218462500255555,0.7,1,195.11164620899945,195.11840020900127,195.11840020900127,195.11840020900127,195.11840020900127,197.10722433400224,197.10801395899034,,,,,,197.10814429199672,None,,,NA,NA,197.1082743339939,197.1155980839976,198.10639008399448,198.1123366249958,194.72971675000736,,,,34108,001,2025-11-07_09h18.18.472,regret_experiment,2024.2.4,None,1,0.5,0.7,0.2,2025-11-07 09h18.34.424365 -0800,
39,0,39,up,0.3356057080090977,None,None,,,39,0,39,0,198.1123366249958,,,,,,,,,198.1071185839828,198.1123366249958,0.00420812499942258,199.10696504201042,40,1,0.5,0.7,0.2,199.10787812501076,199.11569483400672,199.11569483400672,199.11569483400672,199.11569483400672,199.4564682499913,up,0.3356057080090977,None,up,0.3356057080090977,0.7,0,199.46944124999573,199.4772850839945,199.4772850839945,199.4772850839945,199.4772850839945,201.4617556250014,201.4621861249907,,,,,,201.46223595898482,None,,,NA,NA,201.46234075000393,201.47176929199486,202.4553884170018,202.46251295899856,199.11569483400672,,,,34108,001,2025-11-07_09h18.18.472,regret_experiment,2024.2.4,None,1,0.5,0.7,0.2,2025-11-07 09h18.34.424365 -0800,
40,0,40,right,0.3234075830259826,None,None,,,40,0,40,0,202.46251295899856,,,,,,,,,202.45628766700975,202.46251295899856,0.00026833300944417715,203.44667054200545,41,1,0.5,0.7,0.2,203.44725766699412,203.45688241699827,203.45688241699827,203.45688241699827,203.45688241699827,203.7904327090073,right,0.3234075830259826,None,right,0.3234075830259826,0.2,1,203.80381650000345,203.811457333999,203.811457333999,203.811457333999,203.811457333999,205.79660879200674,205.79703983399668,,,,,,205.79708512499928,None,,,NA,NA,205.79714650000096,205.80561195898918,206.79063999999198,206.80767916698824,203.45688241699827,,,,34108,001,2025-11-07_09h18.18.472,regret_experiment,2024.2.4,None,1,0.5,0.7,0.2,2025-11-07 09h18.34.424365 -0800,
41,0,41,up,0.49422270798822865,None,None,,,41,0,41,0,206.80767916698824,,,,,,,,,206.79108291698503,206.80767916698824,0.010660500003723428,207.79856341698905,42,1,0.5,0.7,0.2,207.79895674998988,207.82164008400287,207.82164008400287,207.82164008400287,207.82164008400287,208.32680804200936,up,0.49422270798822865,None,up,0.49422270798822865,0.7,1,208.33957566699246,208.35601449999376,208.35601449999376,208.35601449999376,208.35601449999376,210.32974062499125,210.33015850000083,,,,,,210.33022354199784,None,,,NA,NA,210.33028541700332,210.3387472089962,211.32346733400482,211.33072195900604,,,,,34108,001,2025-11-07_09h18.18.472,regret_experiment,2024.2.4,None,1,0.5,0.7,0.2,2025-11-07 09h18.34.424365 -0800,
42,0,42,right,0.30518133300938644,None,None,,,42,0,42,0,211.33072195900604,,,,,,,,,211.3243902499962,211.33072195900604,0.0005345419922377914,212.3228167920024,43,1,0.5,0.7,0.2,212.32357716700062,212.32921029199497,212.32921029199497,212.32921029199497,212.32921029199497,212.6396276250016,right,0.30518133300938644,None,right,0.30518133300938644,0.2,0,212.65442691699718,212.66342029199586,212.66342029199586,212.66342029199586,212.66342029199586,214.6460384170059,214.64644137499272,,,,,,214.64648349999334,None,,,NA,NA,214.64656629200908,214.6544994589931,215.6424922499864,215.6553152090055,212.32921029199497,,,,34108,001,2025-11-07_09h18.18.472,regret_experiment,2024.2.4,None,1,0.5,0.7,0.2,2025-11-07 09h18.34.424365 -0800,
43,0,43,up,0.37222758401185274,None,None,,,43,0,43,0,215.6553152090055,,,,,,,,,215.64298524998594,215.6553152090055,0.008818957983748987,216.64143874999718,44,1,0.5,0.7,0.2,216.64176220900845,216.6542741250014,216.6542741250014,216.6542741250014,216.6542741250014,217.03803204200813,up,0.37222758401185274,None,up,0.37222758401185274,0.7,1,217.05133041698718,217.05807154200738,217.05807154200738,217.05807154200738,217.05807154200738,219.043120583985,219.04355362500064,,,,,,219.0435974590073,None,,,NA,NA,219.04364616700332,219.05464870898868,220.0414642090036,220.04629658398335,216.6542741250014,,,,34108,001,2025-11-07_09h18.18.472,regret_experiment,2024.2.4,None,1,0.5,0.7,0.2,2025-11-07 09h18.34.424365 -0800,
44,0,44,up,0.3662065420066938,None,None,,,44,0,44,0,220.04629658398335,,,,,,,,,220.04184883399284,220.04629658398335,0.002718000003369525,221.03777008398902,45,1,0.5,0.7,0.2,221.03802895901026,221.0436289999925,221.0436289999925,221.0436289999925,221.0436289999925,221.41239579199464,up,0.3662065420066938,None,up,0.3662065420066938,0.7,1,221.42383074999088,221.4309073339973,221.4309073339973,221.4309073339973,221.4309073339973,223.42127554200124,223.42183058400406,,,,,,223.42192129199975,None,,,NA,NA,223.4220389999973,223.42629083400243,224.421920666995,224.42831166699762,221.0436289999925,,,,34108,001,2025-11-07_09h18.18.472,regret_experiment,2024.2.4,None,1,0.5,0.7,0.2,2025-11-07 09h18.34.424365 -0800,
45,0,45,up,0.5444207079999615,None,None,,,45,0,45,0,224.42831166699762,,,,,,,,,224.42305654200027,224.42831166699762,0.0011125419987365603,225.4216805420001,46,1,0.5,0.7,0.2,225.42214254199644,225.4277638339845,225.4277638339845,225.4277638339845,225.4277638339845,225.9788967089844,up,0.5444207079999615,None,up,0.5444207079999615,0.7,1,225.9902936249855,225.99676208398887,225.99676208398887,225.99676208398887,225.99676208398887,227.98728862500866,227.98808062498574,,,,,,227.988203624991,None,,,NA,NA,227.98831183399307,227.99381545899087,228.97680783399846,228.98740391700994,225.4277638339845,,,,34108,001,2025-11-07_09h18.18.472,regret_experiment,2024.2.4,None,1,0.5,0.7,0.2,2025-11-07 09h18.34.424365 -0800,
46,0,46,up,0.5862509160069749,None,None,,,46,0,46,0,228.98740391700994,,,,,,,,,228.97720600001048,228.98740391700994,-0.0008384170068893582,229.97414362500422,47,1,0.5,0.7,0.2,229.9744381250057,229.98594895898714,229.98594895898714,229.98594895898714,229.98594895898714,230.57744362499216,up,0.5862509160069749,None,up,0.5862509160069749,0.7,1,230.58894991700072,230.59547458399902,230.59547458399902,230.59547458399902,230.59547458399902,232.58715866701095,232.58742220900604,,,,,,232.58745491699665,None,,,NA,NA,232.5875010000018,232.59154233400477,233.57571587499115,233.58612791699125,229.98594895898714,,,,34108,001,2025-11-07_09h18.18.472,regret_experiment,2024.2.4,None,1,0.5,0.7,0.2,2025-11-07 09h18.34.424365 -0800,
47,0,47,up,0.46472962500411086,None,None,,,47,0,47,0,233.58612791699125,,,,,,,,,233.5761058749922,233.58612791699125,0.0044821249903179705,234.57169474998955,48,1,0.5,0.7,0.2,234.57234279200202,234.57831079198513,234.57831079198513,234.57831079198513,234.57831079198513,235.04575037499308,up,0.46472962500411086,None,up,0.46472962500411086,0.7,0,235.05918079198455,235.06618166700355,235.06618166700355,235.06618166700355,235.06618166700355,237.05327383399708,237.05357895899215,,,,,,237.05362220900133,None,,,NA,NA,237.05366908400902,237.05776504200185,238.041586834006,238.05311924999114,234.57831079198513,,,,34108,001,2025-11-07_09h18.18.472,regret_experiment,2024.2.4,None,1,0.5,0.7,0.2,2025-11-07 09h18.34.424365 -0800,
48,0,48,left,0.4851016669999808,None,None,,,48,0,48,0,238.05311924999114,,,,,,,,,238.04197024999303,238.05311924999114,-0.0004829159879591316,239.03636537501006,49,1,0.5,0.7,0.2,239.03670466699987,239.0526642499899,239.0526642499899,239.0526642499899,239.0526642499899,239.5456115840061,left,0.4851016669999808,None,left,0.4851016669999808,0.5,0,239.5647304590093,239.58019058400532,239.58019058400532,239.58019058400532,239.58019058400532,241.55290495901136,241.55324541698792,,,,,,241.55328270900645,None,,,NA,NA,241.55336641700706,241.5573811249924,242.540363084001,242.5531745000044,239.0410809169989,,,,34108,001,2025-11-07_09h18.18.472,regret_experiment,2024.2.4,None,1,0.5,0.7,0.2,2025-11-07 09h18.34.424365 -0800,
49,0,49,right,0.3137399999832269,None,None,,,49,0,49,0,242.5531745000044,,,,,,,,,242.54078420900623,242.5531745000044,-0.0001289169886149466,243.53765312500764,50,1,0.5,0.7,0.2,243.53815933398437,243.54347750000306,243.54347750000306,243.54347750000306,243.54347750000306,243.8610579590022,right,0.3137399999832269,None,right,0.3137399999832269,0.2,0,243.87585708400002,243.88239033400896,243.88239033400896,243.88239033400896,243.88239033400896,245.8691024169966,245.86944008400314,,,,,,245.86946745900786,None,,,NA,NA,245.86951266700635,245.8740843340056,246.8596734169987,246.8693202919967,243.54347750000306,,,,34108,001,2025-11-07_09h18.18.472,regret_experiment,2024.2.4,None,1,0.5,0.7,0.2,2025-11-07 09h18.34.424365 -0800,
50,0,50,up,0.36736508301692083,None,None,,,50,0,50,0,246.8693202919967,,,,,,,,,246.8604707919876,246.8693202919967,-0.00013837497681379318,247.85296774999006,51,1,0.5,0.7,0.2,247.85326595898368,247.85797354200622,247.85797354200622,247.85797354200622,247.85797354200622,248.22755420900648,up,0.36736508301692083,None,up,0.36736508301692083,0.7,1,248.2433190419979,248.25024404199212,248.25024404199212,248.25024404199212,248.25024404199212,250.2361554169911,250.2387376250117,,,,,,250.23896537499968,None,,,NA,NA,250.23909654200543,250.2438617500011,251.22689837499638,251.23575308400905,247.85797354200622,,,,34108,001,2025-11-07_09h18.18.472,regret_experiment,2024.2.4,None,1,0.5,0.7,0.2,2025-11-07 09h18.34.424365 -0800,
51,0,51,up,0.5425991670053918,None,None,,,51,0,51,0,251.23575308400905,,,,,,,,,251.2272002499958,251.23575308400905,0.0011281250044703484,252.21933991700644,52,1,0.5,0.7,0.2,252.21987525001168,252.23441254199133,252.23441254199133,252.23441254199133,252.23441254199133,252.78685495900572,up,0.5425991670053918,None,up,0.5425991670053918,0.7,1,252.79868354200153,252.80583770899102,252.80583770899102,252.80583770899102,252.80583770899102,254.78969050000887,254.79005049998523,,,,,,254.7900842920062,None,,,NA,NA,254.79014562501106,254.80260191700654,255.785444292007,255.7903606669861,252.22508729199762,,,,34108,001,2025-11-07_09h18.18.472,regret_experiment,2024.2.4,None,1,0.5,0.7,0.2,2025-11-07 09h18.34.424365 -0800,
52,0,52,up,0.5580054580059368,None,None,,,52,0,52,0,255.7903606669861,,,,,,,,,255.78571912500774,255.7903606669861,0.0003473339893389493,256.77362308400916,53,1,0.5,0.7,0.2,256.7738430839963,256.78585891699186,256.78585891699186,256.78585891699186,256.78585891699186,257.3551595000026,up,0.5580054580059368,None,up,0.5580054580059368,0.7,1,257.36783549998654,257.37442183398525,257.37442183398525,257.37442183398525,257.37442183398525,259.3575637920003,259.35797312500654,,,,,,259.358013124991,None,,,NA,NA,259.3580656670092,259.36903958400944,260.35615541698644,260.36807999998564,256.78585891699186,,,,34108,001,2025-11-07_09h18.18.472,regret_experiment,2024.2.4,None,1,0.5,0.7,0.2,2025-11-07 09h18.34.424365 -0800,
53,0,53,up,0.5288463750039227,None,None,,,53,0,53,0,260.36807999998564,,,,,,,,,260.3565425419947,260.36807999998564,0.0100712499988731,261.3530633339833,54,1,0.5,0.7,0.2,261.35365841700695,261.3598763339978,261.3598763339978,261.3598763339978,261.3598763339978,261.89204354200047,up,0.5288463750039227,None,up,0.5288463750039227,0.7,1,261.9033408749965,261.90994474999025,261.90994474999025,261.90994474999025,261.90994474999025,263.89235354200355,263.8928325419838,,,,,,263.8928719169926,None,,,NA,NA,263.8929239999852,263.90190374999656,264.88635658400017,264.89238429200486,261.3598763339978,,,,34108,001,2025-11-07_09h18.18.472,regret_experiment,2024.2.4,None,1,0.5,0.7,0.2,2025-11-07 09h18.34.424365 -0800,
54,0,54,up,0.3726218749943655,None,None,,,54,0,54,0,264.89238429200486,,,,,,,,,264.88735854200786,264.89238429200486,-0.00045608400250785053,265.88549583399436,55,1,0.5,0.7,0.2,265.88585520899505,265.89079075001064,265.89079075001064,265.89079075001064,265.89079075001064,266.269673584,up,0.3726218749943655,None,up,0.3726218749943655,0.7,1,266.28164720899076,266.2883231669839,266.2883231669839,266.2883231669839,266.2883231669839,268.2751707499847,268.27563958399696,,,,,,268.27567045899923,None,,,NA,NA,268.2757545839995,268.28498795899213,269.26883149999776,269.2736647920101,265.89079075001064,,,,34108,001,2025-11-07_09h18.18.472,regret_experiment,2024.2.4,None,1,0.5,0.7,0.2,2025-11-07 09h18.34.424365 -0800,
55,0,55,up,0.517900707985973,None,None,,,55,0,55,0,269.2736647920101,,,,,,,,,269.26950304198544,269.2736647920101,0.009388125006807968,270.26890595900477,56,1,0.5,0.7,0.2,270.26919762499165,270.2738362090022,270.2738362090022,270.2738362090022,270.2738362090022,270.7933140420064,up,0.517900707985973,None,up,0.517900707985973,0.7,1,270.8052372499951,270.81202183399,270.81202183399,270.81202183399,270.81202183399,272.8012594169995,272.80166599998483,,,,,,272.80169720901176,None,,,NA,NA,272.80174920900026,272.8060596669966,273.79174587500165,273.801420208998,270.2738362090022,,,,34108,001,2025-11-07_09h18.18.472,regret_experiment,2024.2.4,None,1,0.5,0.7,0.2,2025-11-07 09h18.34.424365 -0800,
56,0,56,up,0.48157554198405705,None,None,,,56,0,56,0,273.801420208998,,,,,,,,,273.7921322500042,273.801420208998,-0.0002764160162769258,274.7849902919843,57,1,0.5,0.7,0.2,274.7852837500104,274.789852041984,274.789852041984,274.789852041984,274.789852041984,275.27629449998494,up,0.48157554198405705,None,up,0.48157554198405705,0.7,1,275.28815474998555,275.2952360420022,275.2952360420022,275.2952360420022,275.2952360420022,277.28470433398616,277.28502574999584,,,,,,277.2850579590013,None,,,NA,NA,277.2851071250043,277.2893730000069,278.2729130839871,278.28480395898805,274.789852041984,,,,34108,001,2025-11-07_09h18.18.472,regret_experiment,2024.2.4,None,1,0.5,0.7,0.2,2025-11-07 09h18.34.424365 -0800,
57,0,57,left,0.9549724170065019,None,None,,,57,0,57,0,278.28480395898805,,,,,,,,,278.27370175000397,278.28480395898805,-0.00024241599021479487,279.26923966698814,58,1,0.5,0.7,0.2,279.2698804590036,279.2760881249851,279.2760881249851,279.2760881249851,279.2760881249851,280.23553425000864,left,0.9549724170065019,None,left,0.9549724170065019,0.5,1,280.24885350000113,280.2553465839883,280.2553465839883,280.2553465839883,280.2553465839883,282.23920837498736,282.23998945899075,,,,,,282.2400853339932,None,,,NA,NA,282.24019120898447,282.2513134999899,283.23594899999443,283.24209470898495,279.2760881249851,,,,34108,001,2025-11-07_09h18.18.472,regret_experiment,2024.2.4,None,1,0.5,0.7,0.2,2025-11-07 09h18.34.424365 -0800,
58,0,58,right,0.7732768749992829,None,None,,,58,0,58,0,283.24209470898495,,,,,,,,,283.2368217500043,283.24209470898495,0.0020072920015081763,284.2355208339868,59,1,0.5,0.7,0.2,284.2359875839902,284.24176574999,284.24176574999,284.24176574999,284.24176574999,285.0186716669996,right,0.7732768749992829,None,right,0.7732768749992829,0.2,0,285.0326008340053,285.03908924999996,285.03908924999996,285.03908924999996,285.03908924999996,287.0238716249878,287.0243404590001,,,,,,287.0243724999891,None,,,NA,NA,287.024413999985,287.03432854200946,288.0185505840054,288.0245676249906,284.24176574999,,,,34108,001,2025-11-07_09h18.18.472,regret_experiment,2024.2.4,None,1,0.5,0.7,0.2,2025-11-07 09h18.34.424365 -0800,
59,0,59,up,0.32845699999597855,None,None,,,59,0,59,0,288.0245676249906,,,,,,,,,288.01936879201094,288.0245676249906,0.0002444589918013662,289.01834174999385,60,1,0.5,0.7,0.2,289.01885054199374,289.02399379198323,289.02399379198323,289.02399379198323,289.02399379198323,289.3586614590022,up,0.32845699999597855,None,up,0.32845699999597855,0.7,0,289.37074829198536,289.37722604200826,289.37722604200826,289.37722604200826,289.37722604200826,291.3673746669956,291.36767562499153,,,,,,291.3677027919912,None,,,NA,NA,291.367751666985,291.37169337499654,292.3570494169835,292.4041778339888,289.02399379198323,,,,34108,001,2025-11-07_09h18.18.472,regret_experiment,2024.2.4,None,1,0.5,0.7,0.2,2025-11-07 09h18.34.424365 -0800,
,,,,,,,,,,,,,,,,,,,,,,,,,,,,,,,,,,,,,,,,,,,,,,,,,,,,,,,,,,,,,,,,,,,N/A,292.39442279198556,292.4041778339888,,,,,,,,,,,,
