thisN,thisTrialN,thisRepN,key_resp_1.keys,key_resp_1.rt,key_resp_1.duration,regret_key.keys,regret_key.rt,regret_key.duration,trials.thisRepN,trials.thisTrialN,trials.thisN,trials.thisIndex,thisRow.t,notes,begin_exp.started,begin.started,advance_key.started,begin_exp.stopped,advance_key.keys,advance_key.rt,advance_key.duration,Fixation.started,fixcross.started,etRecord.started,Fixation.stopped,trial_num,participant_cond,prob_left,prob_up,prob_right,Choice.started,tree1_img.started,tree2_img.started,tree3_img.started,key_resp_1.started,Choice.stopped,trials.key_resp_1.keys,trials.key_resp_1.rt,trials.key_resp_1.duration,choice_key,choice_rt,choice_prob,points,Feedback.started,appleImage.started,tree1.started,tree2.started,tree3.started,Feedback.stopped,RegretRating.started,regret_scale.started,regret_key.started,rtree1.started,rtree2.started,rtree3.started,RegretRating.stopped,trials.regret_key.keys,trials.regret_key.rt,trials.regret_key.duration,regret_rating,regret_rt,ITI.started,blank_screen.started,blank_screen.stopped,ITI.stopped,fixcross.stopped,appleImage.stopped,tree1.stopped,tree2.stopped,tree3.stopped,avg_regret,EndScreen.started,end_display.started,participant,session,date,expName,expVersion,psychopyVersion,frameRate,participant_cond,prob_left,prob_up,prob_right,expStart,
,,,,,,,,,,,,,,,0.0054930830374360085,0.01237312494777143,0.01237312494777143,2.0179947500582784,space,1.9791645410005003,None,,,,,,1,0.2,0.5,0.7,,,,,,,,,,,,,,,,,,,,,,,,,,,,,,,,,,,,,,,,,,,,34111,001,2025-11-05_15h03.04.878,regret_experiment,,2025.1.1,74.24217271388403,1,0.2,0.5,0.7,2025-11-05 15h04.09.489996 -0800,
0,0,0,up,1.4010005418676883,None,2,2.278325416846201,None,0,0,0,0,2.5376726670656353,,,,,,,,,2.0188985001295805,2.5376726670656353,0.0008928750175982714,3.024684000061825,1,1,0.2,0.5,0.7,3.0251015829853714,3.0374407081399113,3.0374407081399113,3.0374407081399113,3.0374407081399113,4.450805291999131,up,1.4010005418676883,None,up,1.4010005418676883,0.5,0,4.469126667128876,4.5023607921320945,4.5023607921320945,4.5023607921320945,4.5023607921320945,6.451351166935638,6.46086833300069,6.46469745808281,6.46469745808281,6.46469745808281,6.46469745808281,6.46469745808281,8.745209292043,2,2.278325416846201,None,2,2.278325416846201,8.745288874953985,8.757155375089496,9.755847875028849,9.742727000033483,,,,,,,,,34111,001,2025-11-05_15h03.04.878,regret_experiment,,2025.1.1,74.24217271388403,1,0.2,0.5,0.7,2025-11-05 15h04.09.489996 -0800,
1,0,1,left,1.3547619169112295,None,2,0.6141099589876831,None,1,0,1,0,9.755847875028849,,,,,,,,,9.743046583142132,9.755847875028849,0.010635208105668426,10.74270600010641,2,1,0.2,0.5,0.7,10.742881000041962,10.755947542143986,10.755947542143986,10.755947542143986,10.755947542143986,12.118883542018011,left,1.3547619169112295,None,left,1.3547619169112295,0.2,0,12.133197291987017,12.138193875085562,12.138193875085562,12.138193875085562,12.138193875085562,14.131618750048801,14.141623958013952,14.144942332990468,14.144942332990468,14.144942332990468,14.144942332990468,14.144942332990468,14.7729376249481,2,0.6141099589876831,None,2,0.6141099589876831,14.773033000063151,14.784163082949817,15.783799625001848,15.77131358301267,10.755947542143986,,,,,,,,34111,001,2025-11-05_15h03.04.878,regret_experiment,,2025.1.1,74.24217271388403,1,0.2,0.5,0.7,2025-11-05 15h04.09.489996 -0800,
2,0,2,up,0.7063015419989824,None,2,2.4565092909615487,None,2,0,2,0,15.783799625001848,,,,,,,,,15.771765958052129,15.783799625001848,0.010842750081792474,16.771305167116225,3,1,0.2,0.5,0.7,16.77168562496081,16.784089375054464,16.784089375054464,16.784089375054464,16.784089375054464,17.492255249992013,up,0.7063015419989824,None,up,0.7063015419989824,0.5,0,17.50757750007324,17.511585167143494,17.511585167143494,17.511585167143494,17.511585167143494,19.503988875076175,19.512013457948342,19.517943457933143,19.517943457933143,19.517943457933143,19.517943457933143,19.517943457933143,21.98537024995312,2,2.4565092909615487,None,2,2.4565092909615487,21.98547250009142,21.996458292007446,22.99800758296624,22.984258542070165,16.784089375054464,,,,,,,,34111,001,2025-11-05_15h03.04.878,regret_experiment,,2025.1.1,74.24217271388403,1,0.2,0.5,0.7,2025-11-05 15h04.09.489996 -0800,
3,0,3,right,0.31411783304065466,None,None,,,3,0,3,0,22.99800758296624,,,,,,,,,22.984668167075142,22.99800758296624,-0.0007521249353885651,23.984314874978736,4,1,0.2,0.5,0.7,23.98459295812063,23.997426917077973,23.997426917077973,23.997426917077973,23.997426917077973,24.3192024580203,right,0.31411783304065466,None,right,0.31411783304065466,0.7,1,24.33214645809494,24.336646292125806,24.336646292125806,24.336646292125806,24.336646292125806,26.33087829197757,26.33124174992554,,,,,,26.331274416996166,None,,,NA,NA,26.331343250116333,26.34357749996707,27.343580458080396,27.33069929201156,23.997426917077973,,,,,,,,34111,001,2025-11-05_15h03.04.878,regret_experiment,,2025.1.1,74.24217271388403,1,0.2,0.5,0.7,2025-11-05 15h04.09.489996 -0800,
4,0,4,left,0.5347457500174642,None,None,,,4,0,4,0,27.343580458080396,,,,,,,,,27.331133916974068,27.343580458080396,-0.00016112509183585644,28.33136779209599,5,1,0.2,0.5,0.7,28.3316735830158,28.344509958056733,28.344509958056733,28.344509958056733,28.344509958056733,28.89173208293505,left,0.5347457500174642,None,left,0.5347457500174642,0.2,1,28.905280167004094,28.908129333052784,28.908129333052784,28.908129333052784,28.908129333052784,30.902981457998976,30.903393583139405,,,,,,30.903438833076507,None,,,NA,NA,30.903513666940853,30.916578291915357,,31.904097458114848,28.344509958056733,,,,,,,,34111,001,2025-11-05_15h03.04.878,regret_experiment,,2025.1.1,74.24217271388403,1,0.2,0.5,0.7,2025-11-05 15h04.09.489996 -0800,
5,0,5,up,0.426758750109002,None,2,1.1252924578730017,None,5,0,5,0,31.91748991701752,,,,,,,,,31.90459637506865,31.91748991701752,0.0011296668089926243,32.90421329205856,6,1,0.2,0.5,0.7,32.90464983298443,32.91756495810114,32.91756495810114,32.91756495810114,32.91756495810114,33.34607974998653,up,0.426758750109002,None,up,0.426758750109002,0.5,0,33.360619249986485,33.363351667067036,33.363351667067036,33.363351667067036,33.363351667067036,35.35695712501183,35.36556537495926,35.36866250005551,35.36866250005551,35.36866250005551,35.36866250005551,35.36866250005551,36.50375695805997,2,1.1252924578730017,None,2,1.1252924578730017,36.50385537510738,36.51592795806937,37.51801500003785,37.503745292080566,,,,,,,,,34111,001,2025-11-05_15h03.04.878,regret_experiment,,2025.1.1,74.24217271388403,1,0.2,0.5,0.7,2025-11-05 15h04.09.489996 -0800,
6,0,6,left,0.2971095419488847,None,2,0.4060376670677215,None,6,0,6,0,37.51801500003785,,,,,,,,,37.504263957962394,37.51801500003785,0.00044991704635322094,38.503518250072375,7,1,0.2,0.5,0.7,38.50385658303276,38.51783366710879,38.51783366710879,38.51783366710879,38.51783366710879,38.825108292046934,left,0.2971095419488847,None,left,0.2971095419488847,0.2,0,38.83980254200287,38.84251987491734,38.84251987491734,38.84251987491734,38.84251987491734,40.83666754211299,40.844825041946024,40.84891137504019,40.84891137504019,40.84891137504019,40.84891137504019,40.84891137504019,41.26526645803824,2,0.4060376670677215,None,2,0.4060376670677215,41.26538200001232,41.276521750027314,42.27660729200579,42.26400954206474,38.51783366710879,,,,,,,,34111,001,2025-11-05_15h03.04.878,regret_experiment,,2025.1.1,74.24217271388403,1,0.2,0.5,0.7,2025-11-05 15h04.09.489996 -0800,
7,0,7,right,0.5211890421342105,None,3,0.7479513331782073,None,7,0,7,0,42.27660729200579,,,,,,,,,42.26447816705331,42.27660729200579,-0.0008505419827997684,43.264866332989186,8,1,0.2,0.5,0.7,43.26516904192977,43.27774270810187,43.27774270810187,43.27774270810187,43.27774270810187,43.81199508300051,right,0.5211890421342105,None,right,0.5211890421342105,0.7,0,43.8263960829936,43.82913670805283,43.82913670805283,43.82913670805283,43.82913670805283,45.82461916701868,45.83307404210791,45.83558141696267,45.83558141696267,45.83558141696267,45.83558141696267,45.83558141696267,46.5855060829781,3,0.7479513331782073,None,3,0.7479513331782073,46.58561466704123,46.597251042025164,47.59705300000496,47.584497625008225,43.27774270810187,,,,,,,,34111,001,2025-11-05_15h03.04.878,regret_experiment,,2025.1.1,74.24217271388403,1,0.2,0.5,0.7,2025-11-05 15h04.09.489996 -0800,
8,0,8,right,0.33819308318197727,None,None,,,8,0,8,0,47.59705300000496,,,,,,,,,47.58497558301315,47.59705300000496,-0.0005834170151501894,48.584757457952946,9,1,0.2,0.5,0.7,48.58511016704142,48.59699700004421,48.59699700004421,48.59699700004421,48.59699700004421,48.94564824993722,right,0.33819308318197727,None,right,0.33819308318197727,0.7,1,48.95921941706911,48.9619624579791,48.9619624579791,48.9619624579791,48.9619624579791,50.9569313749671,50.957341958070174,,,,,,50.957383417058736,None,,,NA,NA,50.95746233314276,50.9698840000201,51.96908599999733,51.955811250023544,48.59699700004421,,,,,,,,34111,001,2025-11-05_15h03.04.878,regret_experiment,,2025.1.1,74.24217271388403,1,0.2,0.5,0.7,2025-11-05 15h04.09.489996 -0800,
9,0,9,right,0.3241496249102056,None,None,,,9,0,9,0,51.96908599999733,,,,,,,,,51.95606758305803,51.96908599999733,0.01173166697844863,52.957773042144254,10,1,0.2,0.5,0.7,52.958075625123456,52.97147758305073,52.97147758305073,52.97147758305073,52.97147758305073,53.305174625013024,right,0.3241496249102056,None,right,0.3241496249102056,0.7,1,53.31752779195085,53.32417320809327,53.32417320809327,53.32417320809327,53.32417320809327,55.31575775006786,55.31612066691741,,,,,,55.31614587502554,None,,,NA,NA,55.316185417119414,55.32902054209262,,56.31762750004418,52.97147758305073,,,,,,,,34111,001,2025-11-05_15h03.04.878,regret_experiment,,2025.1.1,74.24217271388403,1,0.2,0.5,0.7,2025-11-05 15h04.09.489996 -0800,
10,0,10,up,0.3882861668244004,None,2,0.45405391696840525,None,10,0,10,0,56.331038041971624,,,,,,,,,56.318227417068556,56.331038041971624,0.0020790828857570887,57.31765966699459,11,1,0.2,0.5,0.7,57.318038542056456,57.33091691695154,57.33091691695154,57.33091691695154,57.33091691695154,57.73048987495713,up,0.3882861668244004,None,up,0.3882861668244004,0.5,0,57.74445129209198,57.74894916708581,57.74894916708581,57.74894916708581,57.74894916708581,59.74369329214096,59.751780749997124,59.75663295807317,59.75663295807317,59.75663295807317,59.75663295807317,59.75663295807317,60.22492295806296,2,0.45405391696840525,None,2,0.45405391696840525,60.22502433299087,60.23798800003715,61.23707437491976,61.2247477080673,,,,,,,,,34111,001,2025-11-05_15h03.04.878,regret_experiment,,2025.1.1,74.24217271388403,1,0.2,0.5,0.7,2025-11-05 15h04.09.489996 -0800,
11,0,11,left,0.27424470894038677,None,None,,,11,0,11,0,61.23707437491976,,,,,,,,,61.22517933300696,61.23707437491976,0.00020866584964096546,62.224865917116404,12,1,0.2,0.5,0.7,62.22514787502587,62.237256250111386,62.237256250111386,62.237256250111386,62.237256250111386,62.519144708057866,left,0.27424470894038677,None,left,0.27424470894038677,0.2,1,62.53190470812842,62.53617391712032,62.53617391712032,62.53617391712032,62.53617391712032,64.53103366703726,64.5313512920402,,,,,,64.53138675005175,None,,,NA,NA,64.5314541249536,64.54361529205926,65.54448254196905,65.53153500007465,62.237256250111386,,,,,,,,34111,001,2025-11-05_15h03.04.878,regret_experiment,,2025.1.1,74.24217271388403,1,0.2,0.5,0.7,2025-11-05 15h04.09.489996 -0800,
12,0,12,right,0.2664309579413384,None,None,,,12,0,12,0,65.54448254196905,,,,,,,,,65.53196400008164,65.54448254196905,0.0005594159010797739,66.53065404202789,13,1,0.2,0.5,0.7,66.53093508305028,66.54470658302307,66.54470658302307,66.54470658302307,66.54470658302307,66.81291908305138,right,0.2664309579413384,None,right,0.2664309579413384,0.7,1,66.82568000000902,66.83053925004788,66.83053925004788,66.83053925004788,66.83053925004788,68.82465058309026,68.82495300006121,,,,,,68.82498258305714,None,,,NA,NA,68.82505445810966,68.83799916692078,69.83700937498361,69.82391270808876,66.54470658302307,,,,,,,,34111,001,2025-11-05_15h03.04.878,regret_experiment,,2025.1.1,74.24217271388403,1,0.2,0.5,0.7,2025-11-05 15h04.09.489996 -0800,
13,0,13,right,0.3371823749039322,None,None,,,13,0,13,0,69.83700937498361,,,,,,,,,69.824309916934,69.83700937498361,-0.0006975838914513588,70.82511654193513,14,1,0.2,0.5,0.7,70.82541604200378,70.83803237508982,70.83803237508982,70.83803237508982,70.83803237508982,71.18451170809567,right,0.3371823749039322,None,right,0.3371823749039322,0.7,1,71.19714591698721,71.20158558292314,71.20158558292314,71.20158558292314,71.20158558292314,73.19760191696696,73.19792945799418,,,,,,73.19796449993737,None,,,NA,NA,73.19803266692907,73.21035737497732,,74.19817837513983,70.83803237508982,,,,,,,,34111,001,2025-11-05_15h03.04.878,regret_experiment,,2025.1.1,74.24217271388403,1,0.2,0.5,0.7,2025-11-05 15h04.09.489996 -0800,
14,0,14,right,0.51895762514323,None,None,,,14,0,14,0,74.2106685419567,,,,,,,,,74.19861908303574,74.2106685419567,0.0006337079685181379,75.19743541697972,15,1,0.2,0.5,0.7,75.19781704200432,75.2113370001316,75.2113370001316,75.2113370001316,75.2113370001316,75.73218154208735,right,0.51895762514323,None,right,0.51895762514323,0.7,1,75.74479525000788,75.74914879212156,75.74914879212156,75.74914879212156,75.74914879212156,77.74455566704273,77.74493812513538,,,,,,77.74497162504122,None,,,NA,NA,77.74504208308645,77.75779662514105,78.75777766713873,78.74476270796731,75.2113370001316,,,,,,,,34111,001,2025-11-05_15h03.04.878,regret_experiment,,2025.1.1,74.24217271388403,1,0.2,0.5,0.7,2025-11-05 15h04.09.489996 -0800,
15,0,15,left,0.33423220785334706,None,3,0.5451917080208659,None,15,0,15,0,78.75777766713873,,,,,,,,,78.74518812494352,78.75777766713873,0.0001943330280482769,79.74409945798106,16,1,0.2,0.5,0.7,79.74445445812307,79.75684362510219,79.75684362510219,79.75684362510219,79.75684362510219,80.09281662502326,left,0.33423220785334706,None,left,0.33423220785334706,0.2,0,80.1068370831199,80.11117016710341,80.11117016710341,80.11117016710341,80.11117016710341,82.10380366700701,82.11188174993731,82.11792416707613,82.11792416707613,82.11792416707613,82.11792416707613,82.11792416707613,82.66503749997355,3,0.5451917080208659,None,3,0.5451917080208659,82.66512145800516,82.67588900006376,83.67690395796672,83.66448045801371,79.75684362510219,,,,,,,,34111,001,2025-11-05_15h03.04.878,regret_experiment,,2025.1.1,74.24217271388403,1,0.2,0.5,0.7,2025-11-05 15h04.09.489996 -0800,
16,0,16,up,0.2665379580575973,None,2,0.40368679189123213,None,16,0,16,0,83.67690395796672,,,,,,,,,83.66488145804033,83.67690395796672,-0.00019383314065635204,84.66456245793961,17,1,0.2,0.5,0.7,84.66484229196794,84.67778037511744,84.67778037511744,84.67778037511744,84.67778037511744,84.94599216710776,up,0.2665379580575973,None,up,0.2665379580575973,0.5,0,84.95979729201645,84.96402195794508,84.96402195794508,84.96402195794508,84.96402195794508,86.95740162511356,86.9654831669759,86.97078212513588,86.97078212513588,86.97078212513588,86.97078212513588,86.97078212513588,87.38488520798273,2,0.40368679189123213,None,2,0.40368679189123213,87.3849830001127,87.39780620811507,88.39686829200946,88.38451466709375,84.67778037511744,,,,,,,,34111,001,2025-11-05_15h03.04.878,regret_experiment,,2025.1.1,74.24217271388403,1,0.2,0.5,0.7,2025-11-05 15h04.09.489996 -0800,
17,0,17,left,0.25273879198357463,None,2,0.30713366717100143,None,17,0,17,0,88.39686829200946,,,,,,,,,88.38492783298716,88.39686829200946,-3.2498501241207123e-06,89.38512370805256,18,1,0.2,0.5,0.7,89.3854222081136,89.39780208305456,89.39780208305456,89.39780208305456,89.39780208305456,89.65236591710709,left,0.25273879198357463,None,left,0.25273879198357463,0.2,0,89.6658857499715,89.67022187495604,89.67022187495604,89.67022187495604,89.67022187495604,91.6637094579637,91.67129191709682,91.67705391696654,91.67705391696654,91.67705391696654,91.67705391696654,91.67705391696654,91.986330332933,2,0.30713366717100143,None,2,0.30713366717100143,91.98643633304164,91.99632758297957,92.99783212505281,92.98467883304693,89.39780208305456,,,,,,,,34111,001,2025-11-05_15h03.04.878,regret_experiment,,2025.1.1,74.24217271388403,1,0.2,0.5,0.7,2025-11-05 15h04.09.489996 -0800,
18,0,18,right,0.26633779099211097,None,2,0.4207526249811053,None,18,0,18,0,92.99783212505281,,,,,,,,,92.98507383302785,92.99783212505281,0.011474290862679482,93.98457208299078,19,1,0.2,0.5,0.7,93.98485499992967,93.99779404210858,93.99779404210858,93.99779404210858,93.99779404210858,94.2659222080838,right,0.26633779099211097,None,right,0.26633779099211097,0.7,0,94.28003191691823,94.2843470829539,94.2843470829539,94.2843470829539,94.2843470829539,96.27727670804597,96.28492083307356,96.29047704208642,96.29047704208642,96.29047704208642,96.29047704208642,96.29047704208642,96.71895999996923,2,0.4207526249811053,None,2,0.4207526249811053,96.71905733295716,96.73055837512948,97.73060116707347,97.71784170810133,93.99779404210858,,,,,,,,34111,001,2025-11-05_15h03.04.878,regret_experiment,,2025.1.1,74.24217271388403,1,0.2,0.5,0.7,2025-11-05 15h04.09.489996 -0800,
19,0,19,right,0.28362408303655684,None,2,0.4270202498883009,None,19,0,19,0,97.73060116707347,,,,,,,,,97.71819095802493,97.73060116707347,-0.0008163750171661377,98.71835350012407,20,1,0.2,0.5,0.7,98.71866666711867,98.73129470809363,98.73129470809363,98.73129470809363,98.73129470809363,99.02471283311024,right,0.28362408303655684,None,right,0.28362408303655684,0.7,0,99.03884395794012,99.0432918749284,99.0432918749284,99.0432918749284,99.0432918749284,101.03806745796464,101.04739083303139,101.05129154212773,101.05129154212773,101.05129154212773,101.05129154212773,101.05129154212773,101.49200312513858,2,0.4270202498883009,None,2,0.4270202498883009,101.49210016708821,101.50401133298874,102.5042071249336,102.49100787495263,98.73129470809363,,,,,,,,34111,001,2025-11-05_15h03.04.878,regret_experiment,,2025.1.1,74.24217271388403,1,0.2,0.5,0.7,2025-11-05 15h04.09.489996 -0800,
20,0,20,up,0.7271844579372555,None,2,0.37409762502647936,None,20,0,20,0,102.5042071249336,,,,,,,,,102.49143845797516,102.5042071249336,-0.0006105001084506512,103.49099141708575,21,1,0.2,0.5,0.7,103.49128691712394,103.5040467500221,103.5040467500221,103.5040467500221,103.5040467500221,104.23959116707556,up,0.7271844579372555,None,up,0.7271844579372555,0.5,0,104.25380624993704,104.25802275002934,104.25802275002934,104.25802275002934,104.25802275002934,106.25097704213113,106.25856312504038,106.26419520797208,106.26419520797208,106.26419520797208,106.26419520797208,106.26419520797208,106.64005170809105,2,0.37409762502647936,None,2,0.37409762502647936,106.64015300013125,106.65116675011814,,107.64812333299778,103.5040467500221,,,,,,,,34111,001,2025-11-05_15h03.04.878,regret_experiment,,2025.1.1,74.24217271388403,1,0.2,0.5,0.7,2025-11-05 15h04.09.489996 -0800,
21,0,21,right,0.27003737492486835,None,None,,,21,0,21,0,107.66594025003724,,,,,,,,,107.64869712502696,107.66594025003724,0.008598583051934838,108.65043983305804,22,1,0.2,0.5,0.7,108.65085629210807,108.66459187492728,108.66459187492728,108.66459187492728,108.66459187492728,108.94575537508354,right,0.27003737492486835,None,right,0.27003737492486835,0.7,1,108.95835379208438,108.9629489579238,108.9629489579238,108.9629489579238,108.9629489579238,110.95759970811196,110.95794754195958,,,,,,110.95798095804639,None,,,NA,NA,110.95805191714317,110.97129204194061,111.97136983298697,111.95724670798518,,,,,,,,,34111,001,2025-11-05_15h03.04.878,regret_experiment,,2025.1.1,74.24217271388403,1,0.2,0.5,0.7,2025-11-05 15h04.09.489996 -0800,
22,0,22,right,0.33395745884627104,None,None,,,22,0,22,0,111.97136983298697,,,,,,,,,111.95765833300538,111.97136983298697,-0.0003410410135984421,112.95799120794982,23,1,0.2,0.5,0.7,112.95827579195611,112.97108700009994,112.97108700009994,112.97108700009994,112.97108700009994,113.3068079170771,right,0.33395745884627104,None,right,0.33395745884627104,0.7,1,113.31969358306378,113.3240666249767,113.3240666249767,113.3240666249767,113.3240666249767,115.31714929197915,115.31748399999924,,,,,,115.31751687498763,None,,,NA,NA,115.31758725014515,115.3314002500847,,116.31814504205249,112.97108700009994,,,,,,,,34111,001,2025-11-05_15h03.04.878,regret_experiment,,2025.1.1,74.24217271388403,1,0.2,0.5,0.7,2025-11-05 15h04.09.489996 -0800,
23,0,23,right,0.28412495786324143,None,None,,,23,0,23,0,116.33104200009257,,,,,,,,,116.31858966709115,116.33104200009257,0.001052499981597066,117.31781233311631,24,1,0.2,0.5,0.7,117.318118999945,117.33057187497616,117.33057187497616,117.33057187497616,117.33057187497616,117.6246744170785,right,0.28412495786324143,None,right,0.28412495786324143,0.7,1,117.63715104199946,117.65036570793018,117.65036570793018,117.65036570793018,117.65036570793018,119.63744545797817,119.6377813750878,,,,,,119.63781495811418,None,,,NA,NA,119.6378837081138,119.65073024993762,,120.63832108303905,,,,,,,,,34111,001,2025-11-05_15h03.04.878,regret_experiment,,2025.1.1,74.24217271388403,1,0.2,0.5,0.7,2025-11-05 15h04.09.489996 -0800,
24,0,24,right,0.2677760000806302,None,None,,,24,0,24,0,120.65082124993205,,,,,,,,,120.63876425009221,120.65082124993205,0.000928250141441822,121.63804445811547,25,1,0.2,0.5,0.7,121.63835741695948,121.6512453330215,121.6512453330215,121.6512453330215,121.6512453330215,121.93162591708824,right,0.2677760000806302,None,right,0.2677760000806302,0.7,1,121.94383695791475,121.94803408300504,121.94803408300504,121.94803408300504,121.94803408300504,123.94355258299038,123.9438875829801,,,,,,123.9439185000956,None,,,NA,NA,123.94398733298294,123.95768450014293,124.95759975002147,124.94367391709238,121.6512453330215,,,,,,,,34111,001,2025-11-05_15h03.04.878,regret_experiment,,2025.1.1,74.24217271388403,1,0.2,0.5,0.7,2025-11-05 15h04.09.489996 -0800,
25,0,25,right,0.25858045904897153,None,None,,,25,0,25,0,124.95759975002147,,,,,,,,,124.94408370810561,124.95759975002147,0.0001440409105271101,125.94445612514392,26,1,0.2,0.5,0.7,125.94481695792638,125.95709133311175,125.95709133311175,125.95709133311175,125.95709133311175,126.22652949998155,right,0.25858045904897153,None,right,0.25858045904897153,0.7,1,126.23886358295567,126.24309137510136,126.24309137510136,126.24309137510136,126.24309137510136,128.23689995799214,128.23727354197763,,,,,,128.23730579204857,None,,,NA,NA,128.23738000006415,128.25099229207262,,129.23809375008568,,,,,,,,,34111,001,2025-11-05_15h03.04.878,regret_experiment,,2025.1.1,74.24217271388403,1,0.2,0.5,0.7,2025-11-05 15h04.09.489996 -0800,
26,0,26,right,0.3200007500126958,None,2,0.3463441669009626,None,26,0,26,0,129.25042662513442,,,,,,,,,129.23855637502857,129.25042662513442,0.0012256249319761992,130.23755237506703,27,1,0.2,0.5,0.7,130.23781245807186,130.25090166693553,130.25090166693553,130.25090166693553,130.25090166693553,130.57285245810635,right,0.3200007500126958,None,right,0.3200007500126958,0.7,0,130.58653012500145,130.59077470796183,130.59077470796183,130.59077470796183,130.59077470796183,132.58440033299848,132.5925219580531,132.59805358294398,132.59805358294398,132.59805358294398,132.59805358294398,132.59805358294398,132.94621662492864,2,0.3463441669009626,None,2,0.3463441669009626,132.94632441713475,132.9574690000154,133.95698800007813,133.9442735419143,130.25090166693553,,,,,,,,34111,001,2025-11-05_15h03.04.878,regret_experiment,,2025.1.1,74.24217271388403,1,0.2,0.5,0.7,2025-11-05 15h04.09.489996 -0800,
27,0,27,left,0.37680458393879235,None,1,0.5881573748774827,None,27,0,27,0,133.95698800007813,,,,,,,,,133.94474937510677,133.95698800007813,0.01074054092168808,134.94473454193212,28,1,0.2,0.5,0.7,134.94509787508287,134.95777345797978,134.95777345797978,134.95777345797978,134.95777345797978,135.34556787507609,left,0.37680458393879235,None,left,0.37680458393879235,0.2,0,135.35907816700637,135.36174020799808,135.36174020799808,135.36174020799808,135.36174020799808,137.34486312512308,137.35304920794442,137.35585679206997,137.35585679206997,137.35585679206997,137.35585679206997,137.35585679206997,137.94589687511325,1,0.5881573748774827,None,1,0.5881573748774827,137.94600012502633,137.9573944171425,138.95718216709793,138.94422666705213,134.95777345797978,137.35585679206997,137.35585679206997,137.35585679206997,137.35585679206997,,,,34111,001,2025-11-05_15h03.04.878,regret_experiment,,2025.1.1,74.24217271388403,1,0.2,0.5,0.7,2025-11-05 15h04.09.489996 -0800,
28,0,28,up,0.3142740000039339,None,1,0.40876575000584126,None,28,0,28,0,138.95718216709793,,,,,,,,,138.94468837510794,138.95718216709793,0.011263333959504962,139.94436724996194,29,1,0.2,0.5,0.7,139.944684416987,139.9573100421112,139.9573100421112,139.9573100421112,139.9573100421112,140.27907112496905,up,0.3142740000039339,None,up,0.3142740000039339,0.5,0,140.29328708304092,140.2959888749756,140.2959888749756,140.2959888749756,140.2959888749756,142.29035916691646,142.2987870001234,142.30222533294,142.30222533294,142.30222533294,142.30222533294,142.30222533294,142.71879200008698,1,0.40876575000584126,None,1,0.40876575000584126,142.7188805420883,142.73029058310203,143.7302099580411,143.71719695813954,139.9573100421112,,,,,,,,34111,001,2025-11-05_15h03.04.878,regret_experiment,,2025.1.1,74.24217271388403,1,0.2,0.5,0.7,2025-11-05 15h04.09.489996 -0800,
29,0,29,right,0.2606670830864459,None,1,0.3203276670537889,None,29,0,29,0,143.7302099580411,,,,,,,,,143.71765508293174,143.7302099580411,0.011402166914194822,144.7172442500014,30,1,0.2,0.5,0.7,144.7175468329806,144.73035100009292,144.73035100009292,144.73035100009292,144.73035100009292,144.99855825002305,right,0.2606670830864459,None,right,0.2606670830864459,0.7,0,145.01312295813113,145.01579324994236,145.01579324994236,145.01579324994236,145.01579324994236,147.0102098749485,147.018883791985,147.02259275014512,147.02259275014512,147.02259275014512,147.02259275014512,147.02259275014512,147.34489191696048,1,0.3203276670537889,None,1,0.3203276670537889,147.34499362506904,147.35722079197876,148.3569790420588,148.34381783311255,144.73035100009292,,,,,,,,34111,001,2025-11-05_15h03.04.878,regret_experiment,,2025.1.1,74.24217271388403,1,0.2,0.5,0.7,2025-11-05 15h04.09.489996 -0800,
30,0,30,left,0.2740163749549538,None,None,,,30,0,30,0,148.3569790420588,,,,,,,,,148.34429350006394,148.3569790420588,-0.0006420421414077282,149.34415058302693,31,1,0.2,0.5,0.7,149.3444876249414,149.35686495807022,149.35686495807022,149.35686495807022,149.35686495807022,149.6388907500077,left,0.2740163749549538,None,left,0.2740163749549538,0.2,0,149.6529350830242,149.65565595799126,149.65565595799126,149.65565595799126,149.65565595799126,151.65076208300889,151.6511806671042,,,,,,151.6512150829658,None,,,NA,NA,151.6512872921303,151.66378808300942,,152.6599351670593,149.35686495807022,,,,,,,,34111,001,2025-11-05_15h03.04.878,regret_experiment,,2025.1.1,74.24217271388403,1,0.2,0.5,0.7,2025-11-05 15h04.09.489996 -0800,
31,0,31,up,0.6826594579033554,None,None,,,31,0,31,0,152.6793047080282,,,,,,,,,152.66047583310865,152.6793047080282,0.00923945801332593,153.66400624997914,32,1,0.2,0.5,0.7,153.66444645798765,153.67681770795025,153.67681770795025,153.67681770795025,153.67681770795025,154.3719653750304,up,0.6826594579033554,None,up,0.6826594579033554,0.5,0,154.38654883299023,154.38931741705164,154.38931741705164,154.38931741705164,154.38931741705164,156.38337641698308,156.3837479581125,,,,,,156.38378191692755,None,,,NA,NA,156.38385775010101,156.39685741695575,157.39710720791481,157.3837421250064,,,,,,,,,34111,001,2025-11-05_15h03.04.878,regret_experiment,,2025.1.1,74.24217271388403,1,0.2,0.5,0.7,2025-11-05 15h04.09.489996 -0800,
32,0,32,left,1.1881282911635935,None,None,,,32,0,32,0,157.39710720791481,,,,,,,,,157.38421412510797,157.39710720791481,0.00040945899672806263,158.3836847920902,33,1,0.2,0.5,0.7,158.38402008311823,158.39654979202896,158.39654979202896,158.39654979202896,158.39654979202896,159.58647391712293,left,1.1881282911635935,None,left,1.1881282911635935,0.2,0,159.60072445799597,159.60395124997012,159.60395124997012,159.60395124997012,159.60395124997012,161.5975189579185,161.59791395813227,,,,,,161.59794841706753,None,,,NA,NA,161.5980195000302,161.61111608310603,162.61057000001892,162.59748325007968,158.39654979202896,,,,,,,,34111,001,2025-11-05_15h03.04.878,regret_experiment,,2025.1.1,74.24217271388403,1,0.2,0.5,0.7,2025-11-05 15h04.09.489996 -0800,
33,0,33,up,0.3327150831464678,None,None,,,33,0,33,0,162.61057000001892,,,,,,,,,162.59798066713847,162.61057000001892,1.1708121746778488e-05,163.59722733311355,34,1,0.2,0.5,0.7,163.59757416695356,163.61022641696036,163.61022641696036,163.61022641696036,163.61022641696036,163.9452319170814,up,0.3327150831464678,None,up,0.3327150831464678,0.5,0,163.96011320804246,163.9631147501059,163.9631147501059,163.9631147501059,163.9631147501059,165.9569814170245,165.957411875017,,,,,,165.95744587504305,None,,,NA,NA,165.9575197501108,165.9703379170969,166.97053087502718,166.95735100004822,163.61022641696036,,,,,,,,34111,001,2025-11-05_15h03.04.878,regret_experiment,,2025.1.1,74.24217271388403,1,0.2,0.5,0.7,2025-11-05 15h04.09.489996 -0800,
34,0,34,right,0.24461383279412985,None,None,,,34,0,34,0,166.97053087502718,,,,,,,,,166.95785624999553,166.97053087502718,0.00038916594348847866,167.95770925004035,35,1,0.2,0.5,0.7,167.9581504170783,167.9713234580122,167.9713234580122,167.9713234580122,167.9713234580122,168.22638920811005,right,0.24461383279412985,None,right,0.24461383279412985,0.7,1,168.23939037509263,168.24207270797342,168.24207270797342,168.24207270797342,168.24207270797342,170.23678829194978,170.23723291698843,,,,,,170.2372665000148,None,,,NA,NA,170.2373370830901,170.25030058296397,171.25052549992688,171.23709579207934,,,,,,,,,34111,001,2025-11-05_15h03.04.878,regret_experiment,,2025.1.1,74.24217271388403,1,0.2,0.5,0.7,2025-11-05 15h04.09.489996 -0800,
35,0,35,right,0.2794284999836236,None,None,,,35,0,35,0,171.25052549992688,,,,,,,,,171.23757216706872,171.25052549992688,0.00028454186394810677,172.2373685420025,36,1,0.2,0.5,0.7,172.23767383303493,172.25045362510718,172.25045362510718,172.25045362510718,172.25045362510718,172.53204533294775,right,0.2794284999836236,None,right,0.2794284999836236,0.7,1,172.54550749994814,172.5483323330991,172.5483323330991,172.5483323330991,172.5483323330991,174.54375629196875,174.5441264580004,,,,,,174.54416012507863,None,,,NA,NA,174.54423308302648,174.55698604206555,175.5571794169955,175.5439119581133,172.25045362510718,,,,,,,,34111,001,2025-11-05_15h03.04.878,regret_experiment,,2025.1.1,74.24217271388403,1,0.2,0.5,0.7,2025-11-05 15h04.09.489996 -0800,
36,0,36,right,0.2582841671537608,None,None,,,36,0,36,0,175.5571794169955,,,,,,,,,175.54436725005507,175.5571794169955,0.00018458301201462746,176.54372858302668,37,1,0.2,0.5,0.7,176.54407412512228,176.55710704205558,176.55710704205558,176.55710704205558,176.55710704205558,176.82504625013098,right,0.2582841671537608,None,right,0.2582841671537608,0.7,1,176.83808254194446,176.84082754212432,176.84082754212432,176.84082754212432,176.84082754212432,178.82400420797057,178.82437362498604,,,,,,178.82441287511028,None,,,NA,NA,178.82448587496765,178.8367652921006,179.83704737504013,179.82407591701485,176.55710704205558,178.8367652921006,178.8367652921006,178.8367652921006,178.8367652921006,,,,34111,001,2025-11-05_15h03.04.878,regret_experiment,,2025.1.1,74.24217271388403,1,0.2,0.5,0.7,2025-11-05 15h04.09.489996 -0800,
37,0,37,up,0.7866491661407053,None,None,,,37,0,37,0,179.83704737504013,,,,,,,,,179.82459950004704,179.83704737504013,0.00016679195687174797,180.8239994579926,38,1,0.2,0.5,0.7,180.82431220798753,180.8367865420878,180.8367865420878,180.8367865420878,180.8367865420878,181.62535762507468,up,0.7866491661407053,None,up,0.7866491661407053,0.5,0,181.64013233291917,181.64287787512876,181.64287787512876,181.64287787512876,181.64287787512876,183.6377504579723,183.6380692080129,,,,,,183.6381055000238,None,,,NA,NA,183.63817845797166,183.6515782501083,184.6510631251149,184.63828633306548,180.8367865420878,,,,,,,,34111,001,2025-11-05_15h03.04.878,regret_experiment,,2025.1.1,74.24217271388403,1,0.2,0.5,0.7,2025-11-05 15h04.09.489996 -0800,
38,0,38,left,0.3334352499805391,None,None,,,38,0,38,0,184.6510631251149,,,,,,,,,184.6386905000545,184.6510631251149,0.0005600419826805592,185.63829204207286,39,1,0.2,0.5,0.7,185.63859383296221,185.6512295419816,185.6512295419816,185.6512295419816,185.6512295419816,185.98665316705592,left,0.3334352499805391,None,left,0.3334352499805391,0.2,0,186.00101804197766,186.00485295802355,186.00485295802355,186.00485295802355,186.00485295802355,187.9969728330616,187.99735187506303,,,,,,187.99738366692327,None,,,NA,NA,187.99745516711846,188.01038341713138,189.0099209579639,188.99732404202223,,,,,,,,,34111,001,2025-11-05_15h03.04.878,regret_experiment,,2025.1.1,74.24217271388403,1,0.2,0.5,0.7,2025-11-05 15h04.09.489996 -0800,
39,0,39,right,0.26165112503804266,None,None,,,39,0,39,0,189.0099209579639,,,,,,,,,188.99785216711462,189.0099209579639,0.0004445838276296854,189.99717254191637,40,1,0.2,0.5,0.7,189.9975927080959,190.009925958002,190.009925958002,190.009925958002,190.009925958002,190.27881129202433,right,0.26165112503804266,None,right,0.26165112503804266,0.7,1,190.29266291693784,190.29562633298337,190.29562633298337,190.29562633298337,190.29562633298337,192.29039754206315,192.29080058308318,,,,,,192.2908352080267,None,,,NA,NA,192.2909089170862,192.30346920806915,193.30352020799182,193.29067879193462,190.009925958002,,,,,,,,34111,001,2025-11-05_15h03.04.878,regret_experiment,,2025.1.1,74.24217271388403,1,0.2,0.5,0.7,2025-11-05 15h04.09.489996 -0800,
40,0,40,right,0.39094733400270343,None,None,,,40,0,40,0,193.30352020799182,,,,,,,,,193.2911493750289,193.30352020799182,0.00029099988751113415,194.29102387512103,41,1,0.2,0.5,0.7,194.29135991702788,194.30463316710666,194.30463316710666,194.30463316710666,194.30463316710666,194.70582708297297,right,0.39094733400270343,None,right,0.39094733400270343,0.7,1,194.71928920806386,194.7221541251056,194.7221541251056,194.7221541251056,194.7221541251056,196.717214750126,196.71757941693068,,,,,,196.71762579213828,None,,,NA,NA,196.71769795799628,196.73047266714275,197.7293957080692,197.71652975003235,,,,,,,,,34111,001,2025-11-05_15h03.04.878,regret_experiment,,2025.1.1,74.24217271388403,1,0.2,0.5,0.7,2025-11-05 15h04.09.489996 -0800,
41,0,41,right,0.3012220829259604,None,None,,,41,0,41,0,197.7293957080692,,,,,,,,,197.71688095806167,197.7293957080692,-0.0007720408029854298,198.716775292065,42,1,0.2,0.5,0.7,198.7171011250466,198.73020200012252,198.73020200012252,198.73020200012252,198.73020200012252,199.03861529193819,right,0.3012220829259604,None,right,0.3012220829259604,0.7,1,199.051941792015,199.05475799995475,199.05475799995475,199.05475799995475,199.05475799995475,201.05019558314234,201.05055220797658,,,,,,201.0505848331377,None,,,NA,NA,201.05067029199563,201.06348700006492,202.0633858749643,202.0506232921034,198.73020200012252,,,,,,,,34111,001,2025-11-05_15h03.04.878,regret_experiment,,2025.1.1,74.24217271388403,1,0.2,0.5,0.7,2025-11-05 15h04.09.489996 -0800,
42,0,42,right,0.46776058385148644,None,None,,,42,0,42,0,202.0633858749643,,,,,,,,,202.05108116706833,202.0633858749643,0.0004609581083059311,203.05050616711378,43,1,0.2,0.5,0.7,203.05085620796308,203.06351712509058,203.06351712509058,203.06351712509058,203.06351712509058,203.53313604206778,right,0.46776058385148644,None,right,0.46776058385148644,0.7,1,203.5461168331094,203.5488986670971,203.5488986670971,203.5488986670971,203.5488986670971,205.5439237500541,205.5442993331235,,,,,,205.5443329170812,None,,,NA,NA,205.54440412507392,205.55698112491518,206.55686437501572,206.5437719170004,203.06351712509058,,,,,,,,34111,001,2025-11-05_15h03.04.878,regret_experiment,,2025.1.1,74.24217271388403,1,0.2,0.5,0.7,2025-11-05 15h04.09.489996 -0800,
43,0,43,right,0.2929604579694569,None,None,,,43,0,43,0,206.55686437501572,,,,,,,,,206.54425058304332,206.55686437501572,-0.00010549998842179775,207.54469208302908,44,1,0.2,0.5,0.7,207.5451547501143,207.55714037502185,207.55714037502185,207.55714037502185,207.55714037502185,207.85232012509368,right,0.2929604579694569,None,right,0.2929604579694569,0.7,1,207.86592520796694,207.86872862512246,207.86872862512246,207.86872862512246,207.86872862512246,209.86362308310345,209.8640205000993,,,,,,209.8640539580956,None,,,NA,NA,209.86412824993022,209.87697058310732,210.876607083017,210.86387437512167,,,,,,,,,34111,001,2025-11-05_15h03.04.878,regret_experiment,,2025.1.1,74.24217271388403,1,0.2,0.5,0.7,2025-11-05 15h04.09.489996 -0800,
44,0,44,right,0.354987416183576,None,None,,,44,0,44,0,210.876607083017,,,,,,,,,210.8644580419641,210.876607083017,0.0003822499420493841,211.86378220794722,45,1,0.2,0.5,0.7,211.8641521250829,211.87692250008695,211.87692250008695,211.87692250008695,211.87692250008695,212.2387550829444,right,0.354987416183576,None,right,0.354987416183576,0.7,1,212.25281183305196,212.2555403751321,212.2555403751321,212.2555403751321,212.2555403751321,214.2505637500435,214.2509095829446,,,,,,214.25094804214314,None,,,NA,NA,214.25101941707544,214.26351712504402,215.26360529195517,215.2509657079354,211.87692250008695,,,,,,,,34111,001,2025-11-05_15h03.04.878,regret_experiment,,2025.1.1,74.24217271388403,1,0.2,0.5,0.7,2025-11-05 15h04.09.489996 -0800,
45,0,45,right,0.27042770804837346,None,None,,,45,0,45,0,215.26360529195517,,,,,,,,,215.25146029214375,215.26360529195517,0.0004925830289721489,216.250558916945,46,1,0.2,0.5,0.7,216.25083783292212,216.26447879197076,216.26447879197076,216.26447879197076,216.26447879197076,216.54489883291535,right,0.27042770804837346,None,right,0.27042770804837346,0.7,1,216.55755612510256,216.56013129209168,216.56013129209168,216.56013129209168,216.56013129209168,218.54374545812607,218.5440855419729,,,,,,218.54411712498404,None,,,NA,NA,218.5441886249464,218.5569153749384,219.55698895803653,219.54384295805357,216.26447879197076,218.5569153749384,218.5569153749384,218.5569153749384,218.5569153749384,,,,34111,001,2025-11-05_15h03.04.878,regret_experiment,,2025.1.1,74.24217271388403,1,0.2,0.5,0.7,2025-11-05 15h04.09.489996 -0800,
46,0,46,right,0.3213566669728607,None,None,,,46,0,46,0,219.55698895803653,,,,,,,,,219.54431183310226,219.55698895803653,0.00017495895735919476,220.54416745807976,47,1,0.2,0.5,0.7,220.5444681670051,220.55773666710593,220.55773666710593,220.55773666710593,220.55773666710593,220.8922381249722,right,0.3213566669728607,None,right,0.3213566669728607,0.7,1,220.9053280421067,220.90813650004566,220.90813650004566,220.90813650004566,220.90813650004566,222.89163245796226,222.8919077499304,,,,,,222.8919369170908,None,,,NA,NA,222.89200487500057,222.90415158309042,223.90343308309093,223.89090658305213,220.55773666710593,222.90415158309042,222.90415158309042,222.90415158309042,222.90415158309042,,,,34111,001,2025-11-05_15h03.04.878,regret_experiment,,2025.1.1,74.24217271388403,1,0.2,0.5,0.7,2025-11-05 15h04.09.489996 -0800,
47,0,47,right,0.32020612503401935,None,None,,,47,0,47,0,223.90343308309093,,,,,,,,,223.89143545809202,223.90343308309093,-0.0005176251288503408,224.89139779191464,48,1,0.2,0.5,0.7,224.89173187501729,224.90423025004566,224.90423025004566,224.90423025004566,224.90423025004566,225.2263768329285,right,0.32020612503401935,None,right,0.32020612503401935,0.7,1,225.24112150003202,225.2456192499958,225.2456192499958,225.2456192499958,225.2456192499958,227.23817329201847,227.23848887509666,,,,,,227.23852058313787,None,,,NA,NA,227.238589375047,227.25125987501815,228.2513083331287,228.23833795799874,224.90423025004566,,,,,,,,34111,001,2025-11-05_15h03.04.878,regret_experiment,,2025.1.1,74.24217271388403,1,0.2,0.5,0.7,2025-11-05 15h04.09.489996 -0800,
48,0,48,right,0.3005269579589367,None,None,,,48,0,48,0,228.2513083331287,,,,,,,,,228.23879483295605,228.2513083331287,0.00025458401069045067,229.23696795804426,49,1,0.2,0.5,0.7,229.23732995800674,229.25037908297963,229.25037908297963,229.25037908297963,229.25037908297963,229.5585248330608,right,0.3005269579589367,None,right,0.3005269579589367,0.7,1,229.5717717499938,229.57457966706716,229.57457966706716,229.57457966706716,229.57457966706716,231.56975983292796,231.5700815420132,,,,,,231.5701142079197,None,,,NA,NA,231.57016808306798,231.58325783303007,,232.57097762497142,229.25037908297963,,,,,,,,34111,001,2025-11-05_15h03.04.878,regret_experiment,,2025.1.1,74.24217271388403,1,0.2,0.5,0.7,2025-11-05 15h04.09.489996 -0800,
49,0,49,right,0.3060587919317186,None,None,,,49,0,49,0,232.58454016712494,,,,,,,,,232.57147987512872,232.58454016712494,0.0013528340496122837,233.5713952081278,50,1,0.2,0.5,0.7,233.5717382079456,233.5842354169581,233.5842354169581,233.5842354169581,233.5842354169581,233.8925094581209,right,0.3060587919317186,None,right,0.3060587919317186,0.7,1,233.9060395830311,233.90881091705523,233.90881091705523,233.90881091705523,233.90881091705523,235.90474899997935,235.90512954210863,,,,,,235.9051629579626,None,,,NA,NA,235.90523891709745,235.91739204199985,236.9170182500966,236.90408616699278,,,,,,,,,34111,001,2025-11-05_15h03.04.878,regret_experiment,,2025.1.1,74.24217271388403,1,0.2,0.5,0.7,2025-11-05 15h04.09.489996 -0800,
50,0,50,right,0.25205766689032316,None,None,,,50,0,50,0,236.9170182500966,,,,,,,,,236.90451420797035,236.9170182500966,-0.0006717499345541,237.90366624994203,51,1,0.2,0.5,0.7,237.90394875011407,237.91761266696267,237.91761266696267,237.91761266696267,237.91761266696267,238.171955042053,right,0.25205766689032316,None,right,0.25205766689032316,0.7,1,238.18575854203664,238.18853758298792,238.18853758298792,238.18853758298792,238.18853758298792,240.18526904191822,240.18564512510784,,,,,,240.18569145794027,None,,,NA,NA,240.1857625830453,240.19781020795926,241.1969221669715,241.18377783312462,237.91761266696267,,,,,,,,34111,001,2025-11-05_15h03.04.878,regret_experiment,,2025.1.1,74.24217271388403,1,0.2,0.5,0.7,2025-11-05 15h04.09.489996 -0800,
51,0,51,right,0.22728449990972877,None,None,,,51,0,51,0,241.1969221669715,,,,,,,,,241.18426220794208,241.1969221669715,0.011231249896809459,242.18376874993555,52,1,0.2,0.5,0.7,242.1840621670708,242.19716916698962,242.19716916698962,242.19716916698962,242.19716916698962,242.42624387494288,right,0.22728449990972877,None,right,0.22728449990972877,0.7,1,242.43982566706836,242.44265662506223,242.44265662506223,242.44265662506223,242.44265662506223,244.43762325006537,244.43803387507796,,,,,,244.4380827920977,None,,,NA,NA,244.43815862503834,244.4496532920748,245.45002587512136,245.437980042072,242.19716916698962,,,,,,,,34111,001,2025-11-05_15h03.04.878,regret_experiment,,2025.1.1,74.24217271388403,1,0.2,0.5,0.7,2025-11-05 15h04.09.489996 -0800,
52,0,52,right,0.2454191658180207,None,None,,,52,0,52,0,245.45002587512136,,,,,,,,,245.43844541697763,245.45002587512136,0.00034087500534951687,246.4380199171137,53,1,0.2,0.5,0.7,246.43836208293214,246.4505531671457,246.4505531671457,246.4505531671457,246.4505531671457,246.70579958311282,right,0.2454191658180207,None,right,0.2454191658180207,0.7,1,246.71878416696563,246.72148987511173,246.72148987511173,246.72148987511173,246.72148987511173,248.70423325011507,248.70457279193215,,,,,,248.7046120420564,None,,,NA,NA,248.7046836251393,248.71632008301094,249.71675024996512,249.70353537495248,246.4505531671457,248.71632008301094,248.71632008301094,248.71632008301094,248.71632008301094,,,,34111,001,2025-11-05_15h03.04.878,regret_experiment,,2025.1.1,74.24217271388403,1,0.2,0.5,0.7,2025-11-05 15h04.09.489996 -0800,
53,0,53,right,0.2822347499895841,None,None,,,53,0,53,0,249.71675024996512,,,,,,,,,249.70397925004363,249.71675024996512,-0.0006525421049445868,250.70428904192522,54,1,0.2,0.5,0.7,250.7046735000331,250.71722312504426,250.71722312504426,250.71722312504426,250.71722312504426,251.01217925013043,right,0.2822347499895841,None,right,0.2822347499895841,0.7,0,251.02663604193367,251.029352332931,251.029352332931,251.029352332931,251.029352332931,253.02374650002457,253.02420583297499,,,,,,253.0242523329798,None,,,NA,NA,253.02432687510736,253.03671641694382,254.03689958294854,254.02410458307713,250.71722312504426,,,,,,,,34111,001,2025-11-05_15h03.04.878,regret_experiment,,2025.1.1,74.24217271388403,1,0.2,0.5,0.7,2025-11-05 15h04.09.489996 -0800,
54,0,54,up,0.29393937485292554,None,None,,,54,0,54,0,254.03689958294854,,,,,,,,,254.02460804209113,254.03689958294854,0.00033291708678007126,255.02400674996898,55,1,0.2,0.5,0.7,255.02432524994947,255.0367085421458,255.0367085421458,255.0367085421458,255.0367085421458,255.33257087506354,up,0.29393937485292554,None,up,0.29393937485292554,0.5,0,255.34698933293112,255.34973787493072,255.34973787493072,255.34973787493072,255.34973787493072,257.34370245807804,257.3440936249681,,,,,,257.3441264999565,None,,,NA,NA,257.3442002921365,257.35723508312367,258.3569845419843,258.34396966709755,255.0367085421458,,,,,,,,34111,001,2025-11-05_15h03.04.878,regret_experiment,,2025.1.1,74.24217271388403,1,0.2,0.5,0.7,2025-11-05 15h04.09.489996 -0800,
55,0,55,right,0.23412491707131267,None,None,,,55,0,55,0,258.3569845419843,,,,,,,,,258.3444505420048,258.3569845419843,0.00030304095707833767,259.3439812499564,56,1,0.2,0.5,0.7,259.34434170811437,259.35701233311556,259.35701233311556,259.35701233311556,259.35701233311556,259.5987667920999,right,0.23412491707131267,None,right,0.23412491707131267,0.7,1,259.6120550420601,259.61484612501226,259.61484612501226,259.61484612501226,259.61484612501226,261.61029849993065,261.61063412507065,,,,,,261.61066379211843,None,,,NA,NA,261.61073479196057,261.6236933330074,262.6236961251125,262.61073404201306,259.35701233311556,,,,,,,,34111,001,2025-11-05_15h03.04.878,regret_experiment,,2025.1.1,74.24217271388403,1,0.2,0.5,0.7,2025-11-05 15h04.09.489996 -0800,
56,0,56,right,0.23171712504699826,None,None,,,56,0,56,0,262.6236961251125,,,,,,,,,262.6112243330572,262.6236961251125,0.0005409170407801867,263.6107477499172,57,1,0.2,0.5,0.7,263.61111545795575,263.62370220804587,263.62370220804587,263.62370220804587,263.62370220804587,263.866206292063,right,0.23171712504699826,None,right,0.23171712504699826,0.7,1,263.87952737510204,263.882455333136,263.882455333136,263.882455333136,263.882455333136,265.876861250028,265.8773707500659,,,,,,265.8774070420768,None,,,NA,NA,265.8774827499874,265.89036004198715,266.8905337920878,266.8766895830631,,,,,,,,,34111,001,2025-11-05_15h03.04.878,regret_experiment,,2025.1.1,74.24217271388403,1,0.2,0.5,0.7,2025-11-05 15h04.09.489996 -0800,
57,0,57,right,0.24034245894290507,None,None,,,57,0,57,0,266.8905337920878,,,,,,,,,266.87716504209675,266.8905337920878,-0.0002642502076923847,267.8770642920863,58,1,0.2,0.5,0.7,267.8774163329508,267.89039995800704,267.89039995800704,267.89039995800704,267.89039995800704,268.1326593749691,right,0.24034245894290507,None,right,0.24034245894290507,0.7,0,268.1477083750069,268.15045433305204,268.15045433305204,268.15045433305204,268.15045433305204,270.1436252500862,270.1439749170095,,,,,,270.14400875009596,None,,,NA,NA,270.1440804579761,270.15707066701725,,271.1447716669645,267.89039995800704,,,,,,,,34111,001,2025-11-05_15h03.04.878,regret_experiment,,2025.1.1,74.24217271388403,1,0.2,0.5,0.7,2025-11-05 15h04.09.489996 -0800,
58,0,58,right,0.5729639588389546,None,None,,,58,0,58,0,271.1566922920756,,,,,,,,,271.14522200007923,271.1566922920756,0.001190332928672433,272.14389199996367,59,1,0.2,0.5,0.7,272.1442271671258,272.1569198749494,272.1569198749494,272.1569198749494,272.1569198749494,272.74335862509906,right,0.5729639588389546,None,right,0.5729639588389546,0.7,1,272.75616445811465,272.75890675000846,272.75890675000846,272.75890675000846,272.75890675000846,274.7434698329307,274.7438491671346,,,,,,274.7438823329285,None,,,NA,NA,274.743952708086,274.75696566700935,275.75701716705225,275.74385995813645,272.1569198749494,,,,,,,,34111,001,2025-11-05_15h03.04.878,regret_experiment,,2025.1.1,74.24217271388403,1,0.2,0.5,0.7,2025-11-05 15h04.09.489996 -0800,
59,0,59,right,0.2580163748934865,None,None,,,59,0,59,0,275.75701716705225,,,,,,,,,275.74436633312143,275.75701716705225,0.00046295812353491783,276.74383887508884,60,1,0.2,0.5,0.7,276.74424879206344,276.75694129196927,276.75694129196927,276.75694129196927,276.75694129196927,277.02605091710575,right,0.2580163748934865,None,right,0.2580163748934865,0.7,1,277.04022945812903,277.0430609579198,277.0430609579198,277.0430609579198,277.0430609579198,279.03676362498663,279.0371475000866,,,,,,279.0371823750902,None,,,NA,NA,279.0372534999624,279.05036858306266,280.0502170000691,280.0370179170277,276.75694129196927,,,,,,,,34111,001,2025-11-05_15h03.04.878,regret_experiment,,2025.1.1,74.24217271388403,1,0.2,0.5,0.7,2025-11-05 15h04.09.489996 -0800,
,,,,,,,,,,,,,,,,,,,,,,,,,,,,,,,,,,,,,,,,,,,,,,,,,,,,,,,,,,,,,,,,,,,,,,,N/A,280.04335799999535,280.0502170000691,,,,,,,,,,,,,
