thisN,thisTrialN,thisRepN,key_resp_1.keys,key_resp_1.rt,key_resp_1.duration,regret_key.keys,regret_key.rt,regret_key.duration,trials.thisRepN,trials.thisTrialN,trials.thisN,trials.thisIndex,thisRow.t,notes,begin_exp.started,begin.started,advance_key.started,begin_exp.stopped,advance_key.keys,advance_key.rt,advance_key.duration,Fixation.started,fixcross.started,etRecord.started,Fixation.stopped,trial_num,participant_cond,prob_left,prob_up,prob_right,Choice.started,tree1_img.started,tree2_img.started,tree3_img.started,key_resp_1.started,Choice.stopped,trials.key_resp_1.keys,trials.key_resp_1.rt,trials.key_resp_1.duration,choice_key,choice_rt,choice_prob,points,Feedback.started,appleImage.started,tree1.started,tree2.started,tree3.started,Feedback.stopped,regret_rating,regret_rt,RegretRating.started,RegretRating.stopped,trials.regret_key.keys,ITI.started,blank_screen.started,blank_screen.stopped,ITI.stopped,fixcross.stopped,regret_scale.started,regret_key.started,rtree1.started,rtree2.started,rtree3.started,trials.regret_key.rt,trials.regret_key.duration,avg_regret,EndScreen.started,end_display.started,participant,session,date,expName,psychopyVersion,frameRate,participant_cond,prob_left,prob_up,prob_right,expStart,
,,,,,,,,,,,,,,,0.03614633303368464,0.05287154100369662,0.05287154100369662,1.6708768749958836,space,1.5629216670058668,None,,,,,,1,0.5,0.2,0.7,,,,,,,,,,,,,,,,,,,,,,,,,,,,,,,,,,,,,,,,449380,001,2025-08-11_14h46.41.922,regret_experiment,2024.2.4,None,1,0.5,0.2,0.7,2025-08-11 14h46.54.701409 -0700,
0,0,0,right,1.5215066249947995,None,None,,,0,0,0,0,2.247915666026529,,,,,,,,,1.672696708003059,2.247915666026529,0.0017910419846884906,2.673133665986825,1,1,0.5,0.2,0.7,2.673552666034084,2.6859194160206243,2.6859194160206243,2.6859194160206243,2.6859194160206243,4.214856083039194,right,1.5215066249947995,None,right,1.5215066249947995,0.7,1,4.238291416026186,4.387304375006352,4.387304375006352,4.387304375006352,4.387304375006352,6.223398500005715,NA,NA,6.2239678330370225,6.2240618750220165,None,6.224157958000433,6.231012666015886,7.229474833002314,7.223201207991224,,,,,,,,,,,,449380,001,2025-08-11_14h46.41.922,regret_experiment,2024.2.4,None,1,0.5,0.2,0.7,2025-08-11 14h46.54.701409 -0700,
1,0,1,up,2.0013942910009064,None,1,3.388185416988563,None,1,0,1,0,7.229474833002314,,,,,,,,,7.223592041002121,7.229474833002314,-0.0005050839972682297,8.223054708039854,2,1,0.5,0.2,0.7,8.223295208008494,8.228737083030865,8.228737083030865,8.228737083030865,8.228737083030865,10.240725291019771,up,2.0013942910009064,None,up,2.0013942910009064,0.2,0,10.26206220802851,10.271182166005019,10.271182166005019,10.271182166005019,10.271182166005019,12.246189000026789,1,3.388185416988563,12.25718733301619,15.82990879099816,1,15.830063250032254,15.840117708023172,16.830559374997392,16.823703166039195,8.228737083030865,12.435817541030701,12.435817541030701,12.435817541030701,12.435817541030701,12.435817541030701,3.388185416988563,None,,,,449380,001,2025-08-11_14h46.41.922,regret_experiment,2024.2.4,None,1,0.5,0.2,0.7,2025-08-11 14h46.54.701409 -0700,
2,0,2,left,0.8613877089810558,None,1,0.9013056670082733,None,2,0,2,0,16.830559374997392,,,,,,,,,16.824348082998767,16.830559374997392,0.0006006659823469818,17.823095625033602,3,1,0.5,0.2,0.7,17.823365958000068,17.829500625026412,17.829500625026412,17.829500625026412,17.829500625026412,18.697212666040286,left,0.8613877089810558,None,left,0.8613877089810558,0.5,0,18.718406083004083,18.726323332986794,18.726323332986794,18.726323332986794,18.726323332986794,20.705101583036594,1,0.9013056670082733,20.716677415999584,21.626829290995374,1,21.626901791023556,21.63899270800175,22.63026079098927,22.623141666001175,17.829500625026412,20.723562541010324,20.723562541010324,20.723562541010324,20.723562541010324,20.723562541010324,0.9013056670082733,None,,,,449380,001,2025-08-11_14h46.41.922,regret_experiment,2024.2.4,None,1,0.5,0.2,0.7,2025-08-11 14h46.54.701409 -0700,
3,0,3,right,0.5513078749645501,None,1,0.8063667080132291,None,3,0,3,0,22.63026079098927,,,,,,,,,22.624014208035078,22.63026079098927,0.0034492500126361847,23.613030957989395,4,1,0.5,0.2,0.7,23.613277666037902,23.622675458027516,23.622675458027516,23.622675458027516,23.622675458027516,24.18036016600672,right,0.5513078749645501,None,right,0.5513078749645501,0.7,0,24.196129958028905,24.20394070801558,24.20394070801558,24.20394070801558,24.20394070801558,26.189630165987182,1,0.8063667080132291,26.204336666036397,27.02902866603108,1,27.02921808301471,27.038609541021287,28.031228250009008,28.023619499988854,23.622675458027516,26.218032000004314,26.218032000004314,26.218032000004314,26.218032000004314,26.218032000004314,0.8063667080132291,None,,,,449380,001,2025-08-11_14h46.41.922,regret_experiment,2024.2.4,None,1,0.5,0.2,0.7,2025-08-11 14h46.54.701409 -0700,
4,0,4,up,0.6036710000480525,None,1,1.2551163340103813,None,4,0,4,0,28.031228250009008,,,,,,,,,28.024278833006974,28.031228250009008,0.002171166008338332,29.014412833028473,5,1,0.5,0.2,0.7,29.014698082988616,29.02123150002444,29.02123150002444,29.02123150002444,29.02123150002444,29.631600583030377,up,0.6036710000480525,None,up,0.6036710000480525,0.2,0,29.6511333330418,29.659240500011947,29.659240500011947,29.659240500011947,29.659240500011947,31.639993166027125,1,1.2551163340103813,31.654553916014265,32.925450000038836,1,32.92563912499463,32.93964825000148,33.929119750042446,33.92335462500341,29.02123150002444,31.664166958013084,31.664166958013084,31.664166958013084,31.664166958013084,31.664166958013084,1.2551163340103813,None,,,,449380,001,2025-08-11_14h46.41.922,regret_experiment,2024.2.4,None,1,0.5,0.2,0.7,2025-08-11 14h46.54.701409 -0700,
5,0,5,left,0.5893729589879513,None,1,0.572793041006662,None,5,0,5,0,33.929119750042446,,,,,,,,,33.92380625003716,33.929119750042446,0.003632791980635375,34.92275495803915,6,1,0.5,0.2,0.7,34.92304900003364,34.92879845801508,34.92879845801508,34.92879845801508,34.92879845801508,35.52335887501249,left,0.5893729589879513,None,left,0.5893729589879513,0.5,0,35.5342851250316,35.5407043750165,35.5407043750165,35.5407043750165,35.5407043750165,37.525134541036095,1,0.572793041006662,37.53114029101562,38.12287883303361,1,38.12302591599291,38.12958166602766,39.12854900001548,39.12269212503452,34.92879845801508,37.53798754099989,37.53798754099989,37.53798754099989,37.53798754099989,37.53798754099989,0.572793041006662,None,,,,449380,001,2025-08-11_14h46.41.922,regret_experiment,2024.2.4,None,1,0.5,0.2,0.7,2025-08-11 14h46.54.701409 -0700,
6,0,6,right,0.5127924159751274,None,1,1.766763459017966,None,6,0,6,0,39.12854900001548,,,,,,,,,39.12317375000566,39.12854900001548,0.0002786249970085919,40.12237245799042,7,1,0.5,0.2,0.7,40.12263050000183,40.128012375032995,40.128012375032995,40.128012375032995,40.128012375032995,40.64529845799552,right,0.5127924159751274,None,right,0.5127924159751274,0.7,0,40.65767675003735,40.66491683298955,40.66491683298955,40.66491683298955,40.66491683298955,42.656190957990475,1,1.766763459017966,42.66753408301156,44.446280665986706,1,44.446449125010986,44.45545791601762,45.44261737499619,45.43862695799908,40.128012375032995,42.67399945802754,42.67399945802754,42.67399945802754,42.67399945802754,42.67399945802754,1.766763459017966,None,,,,449380,001,2025-08-11_14h46.41.922,regret_experiment,2024.2.4,None,1,0.5,0.2,0.7,2025-08-11 14h46.54.701409 -0700,
7,0,7,up,0.2795954159810208,None,1,0.988372125022579,None,7,0,7,0,45.44261737499619,,,,,,,,,45.43887387501309,45.44261737499619,0.00931200000923127,46.42910116602434,8,1,0.5,0.2,0.7,46.42927454103483,46.439010541012976,46.439010541012976,46.439010541012976,46.439010541012976,46.72215645801043,up,0.2795954159810208,None,up,0.2795954159810208,0.2,0,46.73211325000739,46.89210491604172,46.89210491604172,46.89210491604172,46.89210491604172,48.72274616599316,1,0.988372125022579,48.73246533301426,49.73238958301954,1,49.73250820802059,49.739998166041914,50.72949033300392,50.72334920801222,46.439010541012976,48.73810537502868,48.73810537502868,48.73810537502868,48.73810537502868,48.73810537502868,0.988372125022579,None,,,,449380,001,2025-08-11_14h46.41.922,regret_experiment,2024.2.4,None,1,0.5,0.2,0.7,2025-08-11 14h46.54.701409 -0700,
8,0,8,left,0.34917270799633116,None,None,,,8,0,8,0,50.72949033300392,,,,,,,,,50.72378383303294,50.72949033300392,0.006820500013418496,51.71238041599281,9,1,0.5,0.2,0.7,51.71259579103207,51.728832875029184,51.728832875029184,51.728832875029184,51.728832875029184,52.079487375041936,left,0.34917270799633116,None,left,0.34917270799633116,0.5,1,52.093117416021414,52.10026937501971,52.10026937501971,52.10026937501971,52.10026937501971,54.08958004100714,NA,NA,54.089950041030534,54.09001654101303,None,54.09010295802727,54.09528158302419,55.08932754100533,55.0802600409952,51.722638500039466,,,,,,,,,,,449380,001,2025-08-11_14h46.41.922,regret_experiment,2024.2.4,None,1,0.5,0.2,0.7,2025-08-11 14h46.54.701409 -0700,
9,0,9,left,2.295119957998395,None,1,1.5422134579857811,None,9,0,9,0,55.08932754100533,,,,,,,,,55.08066958299605,55.08932754100533,-0.0006928750080987811,56.07319412502693,10,1,0.5,0.2,0.7,56.07354337500874,56.07918416603934,56.07918416603934,56.07918416603934,56.07918416603934,58.381793415988795,left,2.295119957998395,None,left,2.295119957998395,0.5,0,58.4012835000176,58.409072750015184,58.409072750015184,58.409072750015184,58.409072750015184,60.38983958301833,1,1.5422134579857811,60.40256399998907,61.95742508303374,1,61.95756729104323,61.96279358299216,62.956113082997035,62.94591320800828,56.07918416603934,60.40906012500636,60.40906012500636,60.40906012500636,60.40906012500636,60.40906012500636,1.5422134579857811,None,,,,449380,001,2025-08-11_14h46.41.922,regret_experiment,2024.2.4,None,1,0.5,0.2,0.7,2025-08-11 14h46.54.701409 -0700,
10,0,10,left,0.4503364579868503,None,None,,,10,0,10,0,62.956113082997035,,,,,,,,,62.94632845802698,62.956113082997035,0.004029791976790875,63.94023966602981,11,1,0.5,0.2,0.7,63.940635375038255,63.95683504099725,63.95683504099725,63.95683504099725,63.95683504099725,64.41438687499613,left,0.4503364579868503,None,left,0.4503364579868503,0.5,1,64.43241545802448,64.44042329100193,64.44042329100193,64.44042329100193,64.44042329100193,66.42287841602229,NA,NA,66.42318658303702,66.42324199998984,None,66.42335379100405,66.42809150001267,67.42280258302344,67.41278445802163,63.946643291041255,,,,,,,,,,,449380,001,2025-08-11_14h46.41.922,regret_experiment,2024.2.4,None,1,0.5,0.2,0.7,2025-08-11 14h46.54.701409 -0700,
11,0,11,left,0.489601582987234,None,None,,,11,0,11,0,67.42280258302344,,,,,,,,,67.41331383300712,67.42280258302344,-0.0004654579679481685,68.407209625002,12,1,0.5,0.2,0.7,68.40747583302436,68.41327783302404,68.41327783302404,68.41327783302404,68.41327783302404,68.91015783301555,left,0.489601582987234,None,left,0.489601582987234,0.5,1,68.9283129160176,68.93620841600932,68.93620841600932,68.93620841600932,68.93620841600932,70.91323812503833,NA,NA,70.91353437502403,70.9135882910341,None,70.91366875002859,70.92349479102995,71.91272929101251,71.90656258299714,68.41327783302404,,,,,,,,,,,449380,001,2025-08-11_14h46.41.922,regret_experiment,2024.2.4,None,1,0.5,0.2,0.7,2025-08-11 14h46.54.701409 -0700,
12,0,12,left,0.33013358304742724,None,1,4.112800333008636,None,12,0,12,0,71.91272929101251,,,,,,,,,71.90688904101262,71.91272929101251,-0.0008436659700237215,72.90531870804261,13,1,0.5,0.2,0.7,72.90546804101905,72.91195670800516,72.91195670800516,72.91195670800516,72.91195670800516,73.24510870804079,left,0.33013358304742724,None,left,0.33013358304742724,0.5,0,73.25903758301865,73.26821879099589,73.26821879099589,73.26821879099589,73.26821879099589,75.25624820799567,1,4.112800333008636,75.2678037910373,79.40169550001156,1,79.40262845798861,79.50951087503927,,80.406083125039,72.91195670800516,75.27899362501921,75.27899362501921,75.27899362501921,75.27899362501921,75.27899362501921,4.112800333008636,None,,,,449380,001,2025-08-11_14h46.41.922,regret_experiment,2024.2.4,None,1,0.5,0.2,0.7,2025-08-11 14h46.54.701409 -0700,
13,0,13,left,1.1608768749865703,None,2,1.1699852920137346,None,13,0,13,0,80.42371345800348,,,,,,,,,80.41248887503752,80.42371345800348,0.010600832989439368,81.40723400004208,14,1,0.5,0.2,0.7,81.4075876660063,81.42308887501713,81.42308887501713,81.42308887501713,81.42308887501713,82.59920187504031,left,1.1608768749865703,None,left,1.1608768749865703,0.5,0,82.72230316599598,82.89765012502903,82.89765012502903,82.89765012502903,82.89765012502903,84.60609133302933,2,1.1699852920137346,84.62872033304302,85.83275008300552,2,85.83399979100795,85.84123254101723,86.85188045800896,86.82775250001578,,84.63771129102679,84.63771129102679,84.63771129102679,84.63771129102679,84.63771129102679,1.1699852920137346,None,,,,449380,001,2025-08-11_14h46.41.922,regret_experiment,2024.2.4,None,1,0.5,0.2,0.7,2025-08-11 14h46.54.701409 -0700,
14,0,14,right,0.6881737089715898,None,None,,,14,0,14,0,86.85188045800896,,,,,,,,,86.82829062500969,86.85188045800896,0.019010208023246378,87.83975937502692,15,1,0.5,0.2,0.7,87.84019700001227,87.84706225001719,87.84706225001719,87.84706225001719,87.84706225001719,88.54110304103233,right,0.6881737089715898,None,right,0.6881737089715898,0.7,1,88.56213466601912,88.58252250001533,88.58252250001533,88.58252250001533,88.58252250001533,90.54441391600994,NA,NA,90.54471766599454,90.54478237504372,None,90.5449143750011,90.55613750003977,91.54812191601377,91.54041225003311,,,,,,,,,,,,449380,001,2025-08-11_14h46.41.922,regret_experiment,2024.2.4,None,1,0.5,0.2,0.7,2025-08-11 14h46.54.701409 -0700,
15,0,15,right,0.34946599998511374,None,None,,,15,0,15,0,91.54812191601377,,,,,,,,,91.5411933750147,91.54812191601377,0.003344500029925257,92.53922370803775,16,1,0.5,0.2,0.7,92.53947966604028,92.54481204104377,92.54481204104377,92.54481204104377,92.54481204104377,92.90804537502117,right,0.34946599998511374,None,right,0.34946599998511374,0.7,1,92.92891195800621,92.94293458299944,92.94293458299944,92.94293458299944,92.94293458299944,94.91240441601258,NA,NA,94.91273704101332,94.91279245802434,None,94.91287116601598,94.92270666599507,95.91242216603132,95.90666179102845,92.54481204104377,,,,,,,,,,,449380,001,2025-08-11_14h46.41.922,regret_experiment,2024.2.4,None,1,0.5,0.2,0.7,2025-08-11 14h46.54.701409 -0700,
16,0,16,right,0.41322599997511134,None,None,,,16,0,16,0,95.91242216603132,,,,,,,,,95.9070297080325,95.91242216603132,-0.00037445902125909925,96.90701679099584,17,1,0.5,0.2,0.7,96.90730875002919,96.91426724998746,96.91426724998746,96.91426724998746,96.91426724998746,97.33028312498936,right,0.41322599997511134,None,right,0.41322599997511134,0.7,1,97.34821075003128,97.35680104099447,97.35680104099447,97.35680104099447,97.35680104099447,99.33922641602112,NA,NA,99.33947054098826,99.33950629102765,None,99.33955808304017,99.34384074999252,100.33978733303957,100.32818054099334,96.91426724998746,,,,,,,,,,,449380,001,2025-08-11_14h46.41.922,regret_experiment,2024.2.4,None,1,0.5,0.2,0.7,2025-08-11 14h46.54.701409 -0700,
17,0,17,right,0.33204000000841916,None,1,2.387552083004266,None,17,0,17,0,100.33978733303957,,,,,,,,,100.32856625004206,100.33978733303957,0.00030683400109410286,101.32409387500957,18,1,0.5,0.2,0.7,101.32450033299392,101.33063466602471,101.33063466602471,101.33063466602471,101.33063466602471,101.6739444580162,right,0.33204000000841916,None,right,0.33204000000841916,0.7,0,101.69475141604198,101.7020154580241,101.7020154580241,101.7020154580241,101.7020154580241,103.6801180409966,1,2.387552083004266,103.6949957080069,106.09703466598876,1,106.09718079102458,106.10660158301471,107.09544858301524,107.08971883304184,101.33063466602471,103.70697754103458,103.70697754103458,103.70697754103458,103.70697754103458,103.70697754103458,2.387552083004266,None,,,,449380,001,2025-08-11_14h46.41.922,regret_experiment,2024.2.4,None,1,0.5,0.2,0.7,2025-08-11 14h46.54.701409 -0700,
18,0,18,right,0.26886800001375377,None,None,,,18,0,18,0,107.09544858301524,,,,,,,,,107.09009208303178,107.09544858301524,0.009434041974600405,108.09039041603683,19,1,0.5,0.2,0.7,108.09072658303194,108.09806529100752,108.09806529100752,108.09806529100752,108.09806529100752,108.37464308302151,right,0.26886800001375377,None,right,0.26886800001375377,0.7,1,108.39279070799239,108.40147770801559,108.40147770801559,108.40147770801559,108.40147770801559,110.37969516601879,NA,NA,110.37998929101741,110.38004408299457,None,110.3801217500004,110.38939720799681,111.3800811659894,111.37354695802787,108.09806529100752,,,,,,,,,,,449380,001,2025-08-11_14h46.41.922,regret_experiment,2024.2.4,None,1,0.5,0.2,0.7,2025-08-11 14h46.54.701409 -0700,
19,0,19,right,0.2578731669927947,None,None,,,19,0,19,0,111.3800811659894,,,,,,,,,111.3739927909919,111.3800811659894,4.529202124103904e-05,112.36350883299019,20,1,0.5,0.2,0.7,112.36377337499289,112.37265600002138,112.37265600002138,112.37265600002138,112.37265600002138,112.64095991599606,right,0.2578731669927947,None,right,0.2578731669927947,0.7,1,112.6594810000388,112.66713954100851,112.66713954100851,112.66713954100851,112.66713954100851,114.64592533302493,NA,NA,114.64625379099743,114.64631191600347,None,114.64638670801651,114.65607500000624,115.64630491600838,115.64011079102056,112.37265600002138,,,,,,,,,,,449380,001,2025-08-11_14h46.41.922,regret_experiment,2024.2.4,None,1,0.5,0.2,0.7,2025-08-11 14h46.54.701409 -0700,
20,0,20,right,0.37600300001213327,None,1,2.1781612500199117,None,20,0,20,0,115.64630491600838,,,,,,,,,115.6405360000208,115.64630491600838,-8.33999365568161e-07,116.62951112503652,21,1,0.5,0.2,0.7,116.62975329102483,116.63943404098973,116.63943404098973,116.63943404098973,116.63943404098973,117.02407429099549,right,0.37600300001213327,None,right,0.37600300001213327,0.7,0,117.0448776250123,117.05307579098735,117.05307579098735,117.05307579098735,117.05307579098735,119.02957533299923,1,2.1781612500199117,119.04042558302172,121.230023791024,1,121.23016045801342,121.2404007500154,122.23038683302002,122.22304354101652,116.63943404098973,119.04713391599944,119.04713391599944,119.04713391599944,119.04713391599944,119.04713391599944,2.1781612500199117,None,,,,449380,001,2025-08-11_14h46.41.922,regret_experiment,2024.2.4,None,1,0.5,0.2,0.7,2025-08-11 14h46.54.701409 -0700,
21,0,21,left,0.4963567079976201,None,None,,,21,0,21,0,122.23038683302002,,,,,,,,,122.22344883304322,122.23038683302002,0.0003317910013720393,123.22382333304267,22,1,0.5,0.2,0.7,123.22420095803682,123.23028408299433,123.23028408299433,123.23028408299433,123.23028408299433,123.72927654103842,left,0.4963567079976201,None,left,0.4963567079976201,0.5,1,123.74818541604327,123.75843708298635,123.75843708298635,123.75843708298635,123.75843708298635,125.72947091603419,NA,NA,125.72979741601739,125.72985179099487,None,125.72992479102686,125.73974766599713,126.73093695798889,126.72378125000978,123.23028408299433,,,,,,,,,,,449380,001,2025-08-11_14h46.41.922,regret_experiment,2024.2.4,None,1,0.5,0.2,0.7,2025-08-11 14h46.54.701409 -0700,
22,0,22,right,0.443929041037336,None,None,,,22,0,22,0,126.73093695798889,,,,,,,,,126.72433816600824,126.73093695798889,0.0011042499681934714,127.72418383299373,23,1,0.5,0.2,0.7,127.72466445801547,127.73135779099539,127.73135779099539,127.73135779099539,127.73135779099539,128.17961295798887,right,0.443929041037336,None,right,0.443929041037336,0.7,1,128.19786379102152,128.20644158299547,128.20644158299547,128.20644158299547,128.20644158299547,130.179811583017,NA,NA,130.1802696250379,130.18032600003062,None,130.18042612500722,130.18945329100825,131.17920491599943,131.17326291603968,127.73135779099539,,,,,,,,,,,449380,001,2025-08-11_14h46.41.922,regret_experiment,2024.2.4,None,1,0.5,0.2,0.7,2025-08-11 14h46.54.701409 -0700,
23,0,23,right,0.6518847499974072,None,None,,,23,0,23,0,131.17920491599943,,,,,,,,,131.17370158300037,131.17920491599943,0.00897854199865833,132.17318512499332,24,1,0.5,0.2,0.7,132.1734342080308,132.178983291029,132.178983291029,132.178983291029,132.178983291029,132.84069783298764,right,0.6518847499974072,None,right,0.6518847499974072,0.7,1,132.85888875002274,132.86705979099497,132.86705979099497,132.86705979099497,132.86705979099497,134.84459041600348,NA,NA,134.84486700000707,134.84491695801262,None,134.84498787502525,134.85616595798638,135.8466487500118,135.84031679102918,132.178983291029,,,,,,,,,,,449380,001,2025-08-11_14h46.41.922,regret_experiment,2024.2.4,None,1,0.5,0.2,0.7,2025-08-11 14h46.54.701409 -0700,
24,0,24,right,0.36307712498819456,None,None,,,24,0,24,0,135.8466487500118,,,,,,,,,135.8408454580349,135.8466487500118,0.0017362090293318033,136.83969250001246,25,1,0.5,0.2,0.7,136.83995237504132,136.84586599998875,136.84586599998875,136.84586599998875,136.84586599998875,137.21520912501728,right,0.36307712498819456,None,right,0.36307712498819456,0.7,1,137.2367683330085,137.24412024999037,137.24412024999037,137.24412024999037,137.24412024999037,139.22292383300373,NA,NA,139.22329512500437,139.22334725002293,None,139.22342562500853,139.22967083303956,140.22264795802766,140.2126309160376,136.84586599998875,,,,,,,,,,,449380,001,2025-08-11_14h46.41.922,regret_experiment,2024.2.4,None,1,0.5,0.2,0.7,2025-08-11 14h46.54.701409 -0700,
25,0,25,right,0.6646876250160858,None,None,,,25,0,25,0,140.22264795802766,,,,,,,,,140.21312708302867,140.22264795802766,-0.0006610829732380807,141.2071019160212,26,1,0.5,0.2,0.7,141.20746250002412,141.21447508299025,141.21447508299025,141.21447508299025,141.21447508299025,141.8915890000062,right,0.6646876250160858,None,right,0.6646876250160858,0.7,1,141.90968091599643,141.91762020799797,141.91762020799797,141.91762020799797,141.91762020799797,143.8963267080253,NA,NA,143.89660520799225,143.89666687499266,None,143.89674687501974,143.90614879102213,144.8965104999952,144.89030612498755,141.21447508299025,,,,,,,,,,,449380,001,2025-08-11_14h46.41.922,regret_experiment,2024.2.4,None,1,0.5,0.2,0.7,2025-08-11 14h46.54.701409 -0700,
26,0,26,right,0.6051377499825321,None,None,,,26,0,26,0,144.8965104999952,,,,,,,,,144.8909220410278,144.8965104999952,-0.00015458301641047,145.87981645803666,27,1,0.5,0.2,0.7,145.88006312499056,145.88941816601437,145.88941816601437,145.88941816601437,145.88941816601437,146.49606733303517,right,0.6051377499825321,None,right,0.6051377499825321,0.7,1,146.51387495803647,146.52238562499406,146.52238562499406,146.52238562499406,146.52238562499406,148.50573808304034,NA,NA,148.50622858299175,148.50629491603468,None,148.50638120801887,148.51204445800977,149.50643291603774,149.49616629100638,145.88941816601437,,,,,,,,,,,449380,001,2025-08-11_14h46.41.922,regret_experiment,2024.2.4,None,1,0.5,0.2,0.7,2025-08-11 14h46.54.701409 -0700,
27,0,27,right,0.4765450839768164,None,None,,,27,0,27,0,149.50643291603774,,,,,,,,,149.49661050003488,149.50643291603774,0.00016925000818446279,150.49040158302523,28,1,0.5,0.2,0.7,150.49080508301267,150.49754900002154,150.49754900002154,150.49754900002154,150.49754900002154,150.97977795801125,right,0.4765450839768164,None,right,0.4765450839768164,0.7,1,150.99804387503536,151.00653250003234,151.00653250003234,151.00653250003234,151.00653250003234,152.9900089580333,NA,NA,152.9904987080372,152.99057470803382,None,152.9906789159868,152.99684070801595,153.99648516601883,153.98968825000338,150.49754900002154,,,,,,,,,,,449380,001,2025-08-11_14h46.41.922,regret_experiment,2024.2.4,None,1,0.5,0.2,0.7,2025-08-11 14h46.54.701409 -0700,
28,0,28,right,0.5000349159818143,None,None,,,28,0,28,0,153.99648516601883,,,,,,,,,153.99019912502263,153.99648516601883,-0.0004041669890284538,154.9897468329873,29,1,0.5,0.2,0.7,154.99004041601438,154.99544383300235,154.99544383300235,154.99544383300235,154.99544383300235,155.49779237504117,right,0.5000349159818143,None,right,0.5000349159818143,0.7,1,155.5174304160173,155.52525850001257,155.52525850001257,155.52525850001257,155.52525850001257,157.50623966602143,NA,NA,157.50651908299187,157.50657870800933,None,157.5066642910242,157.51180375000695,158.5060436660424,158.49471945798723,154.99544383300235,,,,,,,,,,,449380,001,2025-08-11_14h46.41.922,regret_experiment,2024.2.4,None,1,0.5,0.2,0.7,2025-08-11 14h46.54.701409 -0700,
29,0,29,right,0.3403519169660285,None,1,1.95387554197805,None,29,0,29,0,158.5060436660424,,,,,,,,,158.49507604102837,158.5060436660424,-0.0005455419886857271,159.4905205410323,30,1,0.5,0.2,0.7,159.49075516604353,159.50664766604314,159.50664766604314,159.50664766604314,159.50664766604314,159.84923954104306,right,0.3403519169660285,None,right,0.3403519169660285,0.7,0,159.87044187501306,159.87765075004427,159.87765075004427,159.87765075004427,159.87765075004427,161.8562537500402,1,1.95387554197805,161.8692320830305,163.84067241603043,1,163.84087075002026,163.84965124999871,164.84743362502195,164.84015175001696,159.50664766604314,161.87747391604353,161.87747391604353,161.87747391604353,161.87747391604353,161.87747391604353,1.95387554197805,None,,,,449380,001,2025-08-11_14h46.41.922,regret_experiment,2024.2.4,None,1,0.5,0.2,0.7,2025-08-11 14h46.54.701409 -0700,
30,0,30,up,0.3054294590256177,None,None,,,30,0,30,0,164.84743362502195,,,,,,,,,164.84075170801952,164.84743362502195,-1.916696783155203e-05,165.83976154099219,31,1,0.5,0.2,0.7,165.84001541603357,165.84550866601057,165.84550866601057,165.84550866601057,165.84550866601057,166.15742920798948,up,0.3054294590256177,None,up,0.3054294590256177,0.2,0,166.17705520801246,166.1887157500023,166.1887157500023,166.1887157500023,166.1887157500023,168.16113675001543,NA,NA,168.1615202910034,168.16158375004306,None,168.16167637502076,168.17290800000774,169.16446066601202,169.15704216604354,165.84550866601057,,,,,,,,,,,449380,001,2025-08-11_14h46.41.922,regret_experiment,2024.2.4,None,1,0.5,0.2,0.7,2025-08-11 14h46.54.701409 -0700,
31,0,31,up,2.204553042014595,None,None,,,31,0,31,0,169.16446066601202,,,,,,,,,169.1576745409984,169.16446066601202,0.002869000018108636,170.15650158299832,32,1,0.5,0.2,0.7,170.1567632080405,170.16273566603195,170.16273566603195,170.16273566603195,170.16273566603195,172.37540770799387,up,2.204553042014595,None,up,2.204553042014595,0.2,0,172.39525091601536,172.40259416599292,172.40259416599292,172.40259416599292,172.40259416599292,174.3783592079999,NA,NA,174.37866916600615,174.37872241600417,None,174.37879737501498,174.38945562503068,175.37985208298778,175.3734817079967,170.16273566603195,,,,,,,,,,,449380,001,2025-08-11_14h46.41.922,regret_experiment,2024.2.4,None,1,0.5,0.2,0.7,2025-08-11 14h46.54.701409 -0700,
32,0,32,left,0.510509459010791,None,None,,,32,0,32,0,175.37985208298778,,,,,,,,,175.3740892080241,175.37985208298778,0.0011168339988216758,176.37382558302488,33,1,0.5,0.2,0.7,176.37414962501498,176.3811887910124,176.3811887910124,176.3811887910124,176.3811887910124,176.8957255409914,left,0.510509459010791,None,left,0.510509459010791,0.5,1,176.9140110000153,176.92247345799115,176.92247345799115,176.92247345799115,176.92247345799115,178.8967211249983,NA,NA,178.8972299580346,178.89730679104105,None,178.89740662503755,178.9057010409888,179.8968815410044,179.89035983302165,176.3811887910124,,,,,,,,,,,449380,001,2025-08-11_14h46.41.922,regret_experiment,2024.2.4,None,1,0.5,0.2,0.7,2025-08-11 14h46.54.701409 -0700,
33,0,33,left,0.5492882920079865,None,None,,,33,0,33,0,179.8968815410044,,,,,,,,,179.89108362502884,179.8968815410044,-0.00042400002712383866,180.8900049580261,34,1,0.5,0.2,0.7,180.8907957909978,180.89743162499508,180.89743162499508,180.89743162499508,180.89743162499508,181.45811962499283,left,0.5492882920079865,None,left,0.5492882920079865,0.5,1,181.47738070803462,181.4868362499983,181.4868362499983,181.4868362499983,181.4868362499983,183.46263804100454,NA,NA,183.46295245800866,183.46301566599868,None,183.46310687501682,183.4729684580234,184.46227037499193,184.4563461249927,180.89743162499508,,,,,,,,,,,449380,001,2025-08-11_14h46.41.922,regret_experiment,2024.2.4,None,1,0.5,0.2,0.7,2025-08-11 14h46.54.701409 -0700,
34,0,34,left,0.4421647090348415,None,None,,,34,0,34,0,184.46227037499193,,,,,,,,,184.45676229102537,184.46227037499193,-0.0007544169784523547,185.4454015000374,35,1,0.5,0.2,0.7,185.4456213330268,185.46152516599977,185.46152516599977,185.46152516599977,185.46152516599977,185.9081997910398,left,0.4421647090348415,None,left,0.4421647090348415,0.5,0,185.9288352500298,185.93661483301548,185.93661483301548,185.93661483301548,185.93661483301548,187.91309737501433,NA,NA,187.91338550002547,187.91344375000335,None,187.9135181250167,187.92297416599467,188.91228954104008,188.9064660409931,185.456111291016,,,,,,,,,,,449380,001,2025-08-11_14h46.41.922,regret_experiment,2024.2.4,None,1,0.5,0.2,0.7,2025-08-11 14h46.54.701409 -0700,
35,0,35,right,0.28500083403196186,None,None,,,35,0,35,0,188.91228954104008,,,,,,,,,188.90685645799385,188.91228954104008,0.00926058302866295,189.89708666602382,36,1,0.5,0.2,0.7,189.8973750830046,189.90652108303038,189.90652108303038,189.90652108303038,189.90652108303038,190.19611104100477,right,0.28500083403196186,None,right,0.28500083403196186,0.7,1,190.21482795802876,190.2222250000341,190.2222250000341,190.2222250000341,190.2222250000341,192.20623395801522,NA,NA,192.20654070802266,192.20659412501846,None,192.20668970799306,192.21156479103956,,193.20672112499597,189.90652108303038,,,,,,,,,,,449380,001,2025-08-11_14h46.41.922,regret_experiment,2024.2.4,None,1,0.5,0.2,0.7,2025-08-11 14h46.54.701409 -0700,
36,0,36,right,0.34588737500598654,None,None,,,36,0,36,0,193.2234606660204,,,,,,,,,193.20712741604075,193.2234606660204,0.0004907079855911434,194.20645229099318,37,1,0.5,0.2,0.7,194.20675424998626,194.21228274999885,194.21228274999885,194.21228274999885,194.21228274999885,194.5622545410297,right,0.34588737500598654,None,right,0.34588737500598654,0.7,0,194.57276520802407,194.57950745802373,194.57950745802373,194.57950745802373,194.57950745802373,196.56300104100956,NA,NA,196.56331495800987,196.56337975000497,None,196.56345762498677,196.57319970801473,197.56377850001445,197.55671845801407,194.21228274999885,,,,,,,,,,,449380,001,2025-08-11_14h46.41.922,regret_experiment,2024.2.4,None,1,0.5,0.2,0.7,2025-08-11 14h46.54.701409 -0700,
37,0,37,right,0.2992639580043033,None,None,,,37,0,37,0,197.56377850001445,,,,,,,,,197.55749908299185,197.56377850001445,0.0004070830182172358,198.55722333298763,38,1,0.5,0.2,0.7,198.55760254099732,198.5637535410351,198.5637535410351,198.5637535410351,198.5637535410351,198.8653526660055,right,0.2992639580043033,None,right,0.2992639580043033,0.7,1,198.88352883298649,198.89137175003998,198.89137175003998,198.89137175003998,198.89137175003998,200.87228837498697,NA,NA,200.87251633300912,200.872558416042,None,200.8726219580276,200.87725729099475,201.8727501250105,201.86151554103708,198.5637535410351,,,,,,,,,,,449380,001,2025-08-11_14h46.41.922,regret_experiment,2024.2.4,None,1,0.5,0.2,0.7,2025-08-11 14h46.54.701409 -0700,
38,0,38,right,0.6279696669662371,None,None,,,38,0,38,0,201.8727501250105,,,,,,,,,201.86188666603994,201.8727501250105,0.00019687501480802894,202.85696441598702,39,1,0.5,0.2,0.7,202.8572545000352,202.86445583304157,202.86445583304157,202.86445583304157,202.86445583304157,203.49646270798985,right,0.6279696669662371,None,right,0.6279696669662371,0.7,1,203.51434983301442,203.52301808301127,203.52301808301127,203.52301808301127,203.52301808301127,205.50618845800636,NA,NA,205.5064896660042,205.50654783303617,None,205.50663254101528,205.5118970409967,206.50622074998682,206.49591041600797,202.86445583304157,,,,,,,,,,,449380,001,2025-08-11_14h46.41.922,regret_experiment,2024.2.4,None,1,0.5,0.2,0.7,2025-08-11 14h46.54.701409 -0700,
39,0,39,right,0.4368901670095511,None,None,,,39,0,39,0,206.50622074998682,,,,,,,,,206.49637508299202,206.50622074998682,-0.0003042090102098882,207.49053225002717,40,1,0.5,0.2,0.7,207.49084295803914,207.49753183301073,207.49753183301073,207.49753183301073,207.49753183301073,207.940660207998,right,0.4368901670095511,None,right,0.4368901670095511,0.7,0,207.96189820801374,207.96928154100897,207.96928154100897,207.96928154100897,207.96928154100897,209.9466552080121,NA,NA,209.94702979101567,209.94708808301948,None,209.94716754101682,209.95612758299103,210.9474300830043,210.94046808301937,207.49753183301073,,,,,,,,,,,449380,001,2025-08-11_14h46.41.922,regret_experiment,2024.2.4,None,1,0.5,0.2,0.7,2025-08-11 14h46.54.701409 -0700,
40,0,40,right,0.2515509169897996,None,None,,,40,0,40,0,210.9474300830043,,,,,,,,,210.94100808299845,210.9474300830043,0.00035795901203528047,211.9402009579935,41,1,0.5,0.2,0.7,211.94052783300867,211.94754891603952,211.94754891603952,211.94754891603952,211.94754891603952,212.20740091602784,right,0.2515509169897996,None,right,0.2515509169897996,0.7,1,212.22549437498674,212.23341387498658,212.23341387498658,212.23341387498658,212.23341387498658,214.22329266602173,NA,NA,214.22380954102846,214.22391866601538,None,214.2240272500203,214.23027129098773,215.2304762910353,215.22323591599707,211.94754891603952,,,,,,,,,,,449380,001,2025-08-11_14h46.41.922,regret_experiment,2024.2.4,None,1,0.5,0.2,0.7,2025-08-11 14h46.54.701409 -0700,
41,0,41,right,0.30571874999441206,None,None,,,41,0,41,0,215.2304762910353,,,,,,,,,215.22361466602888,215.2304762910353,-0.00033908302430063486,216.2230785000138,42,1,0.5,0.2,0.7,216.22340254101437,216.22930795804132,216.22930795804132,216.22930795804132,216.22930795804132,216.541033541027,right,0.30571874999441206,None,right,0.30571874999441206,0.7,1,216.55876587500097,216.56653962499695,216.56653962499695,216.56653962499695,216.56653962499695,218.55685916601215,NA,NA,218.5573659579968,218.55743733298732,None,218.55754337500548,218.5637542080367,219.55617087503197,219.5465712909936,216.22930795804132,,,,,,,,,,,449380,001,2025-08-11_14h46.41.922,regret_experiment,2024.2.4,None,1,0.5,0.2,0.7,2025-08-11 14h46.54.701409 -0700,
42,0,42,right,0.2677543329773471,None,None,,,42,0,42,0,219.55617087503197,,,,,,,,,219.54702200001338,219.55617087503197,0.0041571250185370445,220.54042083304375,43,1,0.5,0.2,0.7,220.5407592499978,220.54767608299153,220.54767608299153,220.54767608299153,220.54767608299153,220.82404741604114,right,0.2677543329773471,None,right,0.2677543329773471,0.7,1,220.84199391602306,220.84981366602005,220.84981366602005,220.84981366602005,220.84981366602005,222.8294331250363,NA,NA,222.82974641601322,222.8298027080018,None,222.82987408299232,222.83940891601378,223.82893066602992,223.82305616600206,220.54767608299153,,,,,,,,,,,449380,001,2025-08-11_14h46.41.922,regret_experiment,2024.2.4,None,1,0.5,0.2,0.7,2025-08-11 14h46.54.701409 -0700,
43,0,43,right,0.39338491699891165,None,None,,,43,0,43,0,223.82893066602992,,,,,,,,,223.82344695803476,223.82893066602992,-0.0008707499946467578,224.81253020802978,44,1,0.5,0.2,0.7,224.8128477500286,224.8306614580215,224.8306614580215,224.8306614580215,224.8306614580215,225.23189358302625,right,0.39338491699891165,None,right,0.39338491699891165,0.7,1,225.25079262501094,225.25872229103697,225.25872229103697,225.25872229103697,225.25872229103697,227.23949158302275,NA,NA,227.23978275002446,227.23983325000154,None,227.23991674999706,227.24502470804146,228.2391623330186,228.22864533303073,224.82334558299044,,,,,,,,,,,449380,001,2025-08-11_14h46.41.922,regret_experiment,2024.2.4,None,1,0.5,0.2,0.7,2025-08-11 14h46.54.701409 -0700,
44,0,44,right,0.2881389170070179,None,None,,,44,0,44,0,228.2391623330186,,,,,,,,,228.2290302499896,228.2391623330186,-0.0006474999827332795,229.22400049999123,45,1,0.5,0.2,0.7,229.2243385000038,229.23089220799739,229.23089220799739,229.23089220799739,229.23089220799739,229.5256520829862,right,0.2881389170070179,None,right,0.2881389170070179,0.7,1,229.54442724998808,229.55223125003977,229.55223125003977,229.55223125003977,229.55223125003977,231.52795983303804,NA,NA,231.52826162503334,231.5283124159905,None,231.52838687499752,231.53936183301266,232.53072954103118,232.52366304100724,229.23089220799739,,,,,,,,,,,449380,001,2025-08-11_14h46.41.922,regret_experiment,2024.2.4,None,1,0.5,0.2,0.7,2025-08-11 14h46.54.701409 -0700,
45,0,45,right,0.25269491702783853,None,None,,,45,0,45,0,232.53072954103118,,,,,,,,,232.52427541604266,232.53072954103118,0.0024369159946218133,233.5233342910069,46,1,0.5,0.2,0.7,233.52362129103858,233.5305234999978,233.5305234999978,233.5305234999978,233.5305234999978,233.7908540830249,right,0.25269491702783853,None,right,0.25269491702783853,0.7,0,233.81112349999603,233.81864195800154,233.81864195800154,233.81864195800154,233.81864195800154,235.79493383300724,NA,NA,235.79519854101818,235.79524987499462,None,235.79532508301781,235.8063071250217,236.79731870803516,236.7900366660324,233.5305234999978,,,,,,,,,,,449380,001,2025-08-11_14h46.41.922,regret_experiment,2024.2.4,None,1,0.5,0.2,0.7,2025-08-11 14h46.54.701409 -0700,
46,0,46,right,0.2671808750019409,None,None,,,46,0,46,0,236.79731870803516,,,,,,,,,236.79060854099225,236.79731870803516,0.002086833002977073,237.7897882499965,47,1,0.5,0.2,0.7,237.79009745799704,237.7954193750047,237.7954193750047,237.7954193750047,237.7954193750047,238.0643329580198,right,0.2671808750019409,None,right,0.2671808750019409,0.7,1,238.08318016602425,238.09121979103656,238.09121979103656,238.09121979103656,238.09121979103656,240.07354591600597,NA,NA,240.0740627500345,240.07414533302654,None,240.07426550000673,240.08068762504263,241.08030579099432,241.07339066598797,237.7954193750047,,,,,,,,,,,449380,001,2025-08-11_14h46.41.922,regret_experiment,2024.2.4,None,1,0.5,0.2,0.7,2025-08-11 14h46.54.701409 -0700,
47,0,47,right,0.2782362090074457,None,None,,,47,0,47,0,241.08030579099432,,,,,,,,,241.07408058299916,241.08030579099432,-0.00011312501737847924,242.06326091603842,48,1,0.5,0.2,0.7,242.06353225000203,242.07265708298655,242.07265708298655,242.07265708298655,242.07265708298655,242.35897029103944,right,0.2782362090074457,None,right,0.2782362090074457,0.7,0,242.38010716601275,242.3884939160198,242.3884939160198,242.3884939160198,242.3884939160198,244.36232262500562,NA,NA,244.36248520802474,244.3625074159936,None,244.36253899999429,244.37279337499058,245.36185612500412,245.35590037499787,242.07265708298655,,,,,,,,,,,449380,001,2025-08-11_14h46.41.922,regret_experiment,2024.2.4,None,1,0.5,0.2,0.7,2025-08-11 14h46.54.701409 -0700,
48,0,48,right,0.25936287496006116,None,None,,,48,0,48,0,245.36185612500412,,,,,,,,,245.35630725004012,245.36185612500412,-0.0006266669952310622,246.34612754103728,49,1,0.5,0.2,0.7,246.34637725003995,246.35609687503893,246.35609687503893,246.35609687503893,246.35609687503893,246.62413837498752,right,0.25936287496006116,None,right,0.25936287496006116,0.7,1,246.64246533298865,246.65016095800092,246.65016095800092,246.65016095800092,246.65016095800092,248.63018791598734,NA,NA,248.63048612501007,248.63053875003243,None,248.63061275001382,248.63945770799182,249.6283210000256,249.6229842500179,246.35609687503893,,,,,,,,,,,449380,001,2025-08-11_14h46.41.922,regret_experiment,2024.2.4,None,1,0.5,0.2,0.7,2025-08-11 14h46.54.701409 -0700,
49,0,49,right,0.26652754098176956,None,None,,,49,0,49,0,249.6283210000256,,,,,,,,,249.6233124579885,249.6283210000256,0.008720457961317152,250.611912708031,50,1,0.5,0.2,0.7,250.61213333299384,250.6284554580343,250.6284554580343,250.6284554580343,250.6284554580343,250.89718287502183,right,0.26652754098176956,None,right,0.26652754098176956,0.7,1,250.91652970801806,250.92493691603886,250.92493691603886,250.92493691603886,250.92493691603886,252.90614149998873,NA,NA,252.90641187503934,252.90646470803767,None,252.90655633300776,252.9117676250171,253.90600570803508,253.89602966600796,250.62278637499548,,,,,,,,,,,449380,001,2025-08-11_14h46.41.922,regret_experiment,2024.2.4,None,1,0.5,0.2,0.7,2025-08-11 14h46.54.701409 -0700,
50,0,50,right,0.2549261249951087,None,None,,,50,0,50,0,253.90600570803508,,,,,,,,,253.89638054103125,253.90600570803508,-0.0004240419948473573,254.88981929101283,51,1,0.5,0.2,0.7,254.89013054099632,254.89603520801757,254.89603520801757,254.89603520801757,254.89603520801757,255.15742783300811,right,0.2549261249951087,None,right,0.2549261249951087,0.7,1,255.1756581250229,255.18317833304172,255.18317833304172,255.18317833304172,255.18317833304172,257.1617521659937,NA,NA,257.16205095802434,257.1621083749924,None,257.1621841660235,257.17326524999226,258.16232645802666,258.15633791603614,254.89603520801757,,,,,,,,,,,449380,001,2025-08-11_14h46.41.922,regret_experiment,2024.2.4,None,1,0.5,0.2,0.7,2025-08-11 14h46.54.701409 -0700,
51,0,51,right,0.39362400001846254,None,None,,,51,0,51,0,258.16232645802666,,,,,,,,,258.1567819160409,258.16232645802666,0.00027191697154194117,259.1569285829901,52,1,0.5,0.2,0.7,259.1571744160028,259.1735034160083,259.1735034160083,259.1735034160083,259.1735034160083,259.57466820802074,right,0.39362400001846254,None,right,0.39362400001846254,0.7,0,259.5950040000025,259.60271795804147,259.60271795804147,259.60271795804147,259.60271795804147,261.5798727910151,NA,NA,261.58021074999124,261.5802644159994,None,261.58034187502926,261.58939958299743,262.58030779100955,262.57360845804214,259.1735034160083,,,,,,,,,,,449380,001,2025-08-11_14h46.41.922,regret_experiment,2024.2.4,None,1,0.5,0.2,0.7,2025-08-11 14h46.54.701409 -0700,
52,0,52,right,0.32156458299141377,None,None,,,52,0,52,0,262.58030779100955,,,,,,,,,262.57427308300976,262.58030779100955,6.237498018890619e-05,263.5739023750066,53,1,0.5,0.2,0.7,263.57423629099503,263.5811274999869,263.5811274999869,263.5811274999869,263.5811274999869,263.90759966603946,right,0.32156458299141377,None,right,0.32156458299141377,0.7,0,263.9273633750272,263.9341434580274,263.9341434580274,263.9341434580274,263.9341434580274,265.91162779100705,NA,NA,265.9118907499942,265.91194262501085,None,265.9120324579999,265.92278283298947,266.9124980409979,266.9064557499951,263.5811274999869,,,,,,,,,,,449380,001,2025-08-11_14h46.41.922,regret_experiment,2024.2.4,None,1,0.5,0.2,0.7,2025-08-11 14h46.54.701409 -0700,
53,0,53,right,0.37362645799294114,None,None,,,53,0,53,0,266.9124980409979,,,,,,,,,266.9068862909917,266.9124980409979,0.000583458982873708,267.8968145000399,54,1,0.5,0.2,0.7,267.89711745799286,267.9053069160436,267.9053069160436,267.9053069160436,267.9053069160436,268.28139579104027,right,0.37362645799294114,None,right,0.37362645799294114,0.7,0,268.30095870798687,268.30860041599954,268.30860041599954,268.30860041599954,268.30860041599954,270.28951312502613,NA,NA,270.28988320799544,270.28993916598847,None,270.290036958002,270.2957511250279,271.29590895801084,271.28973250003764,267.9053069160436,,,,,,,,,,,449380,001,2025-08-11_14h46.41.922,regret_experiment,2024.2.4,None,1,0.5,0.2,0.7,2025-08-11 14h46.54.701409 -0700,
54,0,54,right,0.6695723329903558,None,None,,,54,0,54,0,271.29590895801084,,,,,,,,,271.29012366599636,271.29590895801084,0.00016466696979478002,272.27990070800297,55,1,0.5,0.2,0.7,272.2801714160014,272.28929529100424,272.28929529100424,272.28929529100424,272.28929529100424,272.9622453750344,right,0.6695723329903558,None,right,0.6695723329903558,0.7,1,272.9800786250271,272.988438875007,272.988438875007,272.988438875007,272.988438875007,274.9629334580386,NA,NA,274.9632162080379,274.96326637500897,None,274.96333745802986,274.9726380830398,275.9633090000134,275.9567140410072,272.28929529100424,,,,,,,,,,,449380,001,2025-08-11_14h46.41.922,regret_experiment,2024.2.4,None,1,0.5,0.2,0.7,2025-08-11 14h46.54.701409 -0700,
55,0,55,right,0.30134620796889067,None,None,,,55,0,55,0,275.9633090000134,,,,,,,,,275.95715400000336,275.9633090000134,4.704197635874152e-05,276.94598204101203,56,1,0.5,0.2,0.7,276.94622341601644,276.9559644580004,276.9559644580004,276.9559644580004,276.9559644580004,277.2636936660274,right,0.30134620796889067,None,right,0.30134620796889067,0.7,1,277.281236040988,277.2896187910228,277.2896187910228,277.2896187910228,277.2896187910228,279.27280500001507,NA,NA,279.27308212500066,279.27313291601604,None,279.27321387501433,279.2784328330308,280.27286454103887,280.26270150003256,276.9559644580004,,,,,,,,,,,449380,001,2025-08-11_14h46.41.922,regret_experiment,2024.2.4,None,1,0.5,0.2,0.7,2025-08-11 14h46.54.701409 -0700,
56,0,56,right,0.3446792910108343,None,None,,,56,0,56,0,280.27286454103887,,,,,,,,,280.26325262500905,280.27286454103887,-0.0002708339598029852,281.2571254580398,57,1,0.5,0.2,0.7,281.2575369999977,281.263893416035,281.263893416035,281.263893416035,281.263893416035,281.61296216602204,right,0.3446792910108343,None,right,0.3446792910108343,0.7,1,281.6302456660196,281.63744954101276,281.63744954101276,281.63744954101276,281.63744954101276,283.62333212501835,NA,NA,283.6238238750375,283.62389741599327,None,283.6239925000118,283.6303145000129,284.6310787500115,284.6237855410436,281.263893416035,,,,,,,,,,,449380,001,2025-08-11_14h46.41.922,regret_experiment,2024.2.4,None,1,0.5,0.2,0.7,2025-08-11 14h46.54.701409 -0700,
57,0,57,right,0.32273108401568606,None,None,,,57,0,57,0,284.6310787500115,,,,,,,,,284.6243398330407,284.6310787500115,0.0004167910083197057,285.6233187910402,58,1,0.5,0.2,0.7,285.62359791604104,285.6290835409891,285.6290835409891,285.6290835409891,285.6290835409891,285.95719416602515,right,0.32273108401568606,None,right,0.32273108401568606,0.7,1,285.97610237501794,285.98396641603904,285.98396641603904,285.98396641603904,285.98396641603904,287.9612819160102,NA,NA,287.96156816603616,287.9616210410022,None,287.9616932499921,287.9734274999937,288.9622059580288,288.9563722910243,285.6290835409891,,,,,,,,,,,449380,001,2025-08-11_14h46.41.922,regret_experiment,2024.2.4,None,1,0.5,0.2,0.7,2025-08-11 14h46.54.701409 -0700,
58,0,58,right,0.5114498750190251,None,None,,,58,0,58,0,288.9622059580288,,,,,,,,,288.95673412503675,288.9622059580288,0.0006252500461414456,289.9562899580342,59,1,0.5,0.2,0.7,289.9565349580371,289.9623107910156,289.9623107910156,289.9623107910156,289.9623107910156,290.47649050003383,right,0.5114498750190251,None,right,0.5114498750190251,0.7,1,290.49465950002195,290.5020517500234,290.5020517500234,290.5020517500234,290.5020517500234,292.4783395000268,NA,NA,292.47861641598865,292.4786677910015,None,292.478748958034,292.48939020803664,293.48050833301386,293.473575290991,289.9623107910156,,,,,,,,,,,449380,001,2025-08-11_14h46.41.922,regret_experiment,2024.2.4,None,1,0.5,0.2,0.7,2025-08-11 14h46.54.701409 -0700,
59,0,59,right,0.3267961659585126,None,None,,,59,0,59,0,293.48050833301386,,,,,,,,,293.47402133303694,293.48050833301386,0.001840165990870446,294.4736245830427,60,1,0.5,0.2,0.7,294.47396833304083,294.48087983299047,294.48087983299047,294.48087983299047,294.48087983299047,294.8142742080381,right,0.3267961659585126,None,right,0.3267961659585126,0.7,1,294.83145291602705,294.83966487500584,294.83966487500584,294.83966487500584,294.83966487500584,296.8222888330347,NA,NA,296.8226574159926,296.82270808302565,None,296.8227815410355,296.8273097079946,297.86291470803553,297.8113247079891,294.48087983299047,,,,,,,,,,,449380,001,2025-08-11_14h46.41.922,regret_experiment,2024.2.4,None,1,0.5,0.2,0.7,2025-08-11 14h46.54.701409 -0700,
,,,,,,,,,,,,,,,,,,,,,,,,,,,,,,,,,,,,,,,,,,,,,,,,,,,,,,,,,,,,,,,,,,,N/A,297.8546104580164,297.86291470803553,,,,,,,,,,,,
