thisN,thisTrialN,thisRepN,key_resp_1.keys,key_resp_1.rt,key_resp_1.duration,regret_key.keys,regret_key.rt,regret_key.duration,trials.thisRepN,trials.thisTrialN,trials.thisN,trials.thisIndex,thisRow.t,notes,begin_exp.started,begin.started,advance_key.started,begin_exp.stopped,advance_key.keys,advance_key.rt,advance_key.duration,Fixation.started,fixcross.started,etRecord.started,Fixation.stopped,trial_num,participant_cond,prob_left,prob_up,prob_right,Choice.started,tree1_img.started,tree2_img.started,tree3_img.started,key_resp_1.started,Choice.stopped,trials.key_resp_1.keys,trials.key_resp_1.rt,trials.key_resp_1.duration,choice_key,choice_rt,choice_prob,points,Feedback.started,appleImage.started,tree1.started,tree2.started,tree3.started,Feedback.stopped,regret_rating,regret_rt,RegretRating.started,RegretRating.stopped,trials.regret_key.keys,ITI.started,blank_screen.started,blank_screen.stopped,ITI.stopped,fixcross.stopped,regret_scale.started,regret_key.started,rtree1.started,rtree2.started,rtree3.started,trials.regret_key.rt,trials.regret_key.duration,avg_regret,EndScreen.started,end_display.started,participant,session,date,expName,psychopyVersion,frameRate,participant_cond,prob_left,prob_up,prob_right,expStart,
,,,,,,,,,,,,,,,0.009100082970689982,0.02463133301353082,0.02463133301353082,1.700772833020892,space,1.644854124984704,None,,,,,,1,0.5,0.7,0.2,,,,,,,,,,,,,,,,,,,,,,,,,,,,,,,,,,,,,,,,578066,001,2025-08-11_15h25.20.198,regret_experiment,2024.2.4,121.07997228287773,1,0.5,0.7,0.2,2025-08-11 15h25.31.346068 -0700,
0,0,0,up,1.0728031669859774,None,None,,,0,0,0,0,2.2518872909713537,,,,,,,,,1.702582290978171,2.2518872909713537,0.0017687910003587604,2.7053062909981236,1,1,0.5,0.7,0.2,2.7057418749900535,2.715993250021711,2.715993250021711,2.715993250021711,2.715993250021711,3.8034113330068067,up,1.0728031669859774,None,up,1.0728031669859774,0.7,1,3.827366041019559,3.914082375005819,3.914082375005819,3.914082375005819,3.914082375005819,5.8061094579752535,NA,NA,5.806398665998131,5.806456874997821,None,5.806535749987233,5.817111707990989,6.807980832993053,6.801393707981333,,,,,,,,,,,,578066,001,2025-08-11_15h25.20.198,regret_experiment,2024.2.4,121.07997228287773,1,0.5,0.7,0.2,2025-08-11 15h25.31.346068 -0700,
1,0,1,right,1.0211111250100657,None,None,,,1,0,1,0,6.807980832993053,,,,,,,,,6.8019702910096385,6.807980832993053,0.0015393749927170575,7.801388040999882,2,1,0.5,0.7,0.2,7.8017096249968745,7.807905666006263,7.807905666006263,7.807905666006263,7.807905666006263,8.835456290980801,right,1.0211111250100657,None,right,1.0211111250100657,0.2,1,8.854432665975764,8.863962124974933,8.863962124974933,8.863962124974933,8.863962124974933,10.839017749996856,NA,NA,10.839349583024159,10.839403291000053,None,10.839478374982718,10.85034295800142,11.841512457991485,11.834525540994946,7.807905666006263,,,,,,,,,,,578066,001,2025-08-11_15h25.20.198,regret_experiment,2024.2.4,121.07997228287773,1,0.5,0.7,0.2,2025-08-11 15h25.31.346068 -0700,
2,0,2,up,0.403889250010252,None,None,,,2,0,2,0,11.841512457991485,,,,,,,,,11.835102915996686,11.841512457991485,0.002118667005561292,12.834580208000261,3,1,0.5,0.7,0.2,12.834926999988966,12.840749249968212,12.840749249968212,12.840749249968212,12.840749249968212,13.252055165998172,up,0.403889250010252,None,up,0.403889250010252,0.7,1,13.272042249969672,13.279245499987155,13.279245499987155,13.279245499987155,13.279245499987155,15.257250082970131,NA,NA,15.2576384160202,15.257689916004892,None,15.257762999972329,15.425013582978863,,16.2579128749785,12.840749249968212,,,,,,,,,,,578066,001,2025-08-11_15h25.20.198,regret_experiment,2024.2.4,121.07997228287773,1,0.5,0.7,0.2,2025-08-11 15h25.31.346068 -0700,
3,0,3,left,0.3143427079776302,None,None,,,3,0,3,0,16.265485458017793,,,,,,,,,16.258785040990915,16.265485458017793,0.0010831249528564513,17.25090966600692,4,1,0.5,0.7,0.2,17.251231083006132,17.257794208009727,17.257794208009727,17.257794208009727,17.257794208009727,17.575123040995095,left,0.3143427079776302,None,left,0.3143427079776302,0.5,1,17.59350670798449,17.601446208020207,17.601446208020207,17.601446208020207,17.601446208020207,19.584256374975666,NA,NA,19.58471208298579,19.58478625002317,None,19.58487379096914,19.591377125005238,20.590124875016045,20.58394862501882,17.257794208009727,,,,,,,,,,,578066,001,2025-08-11_15h25.20.198,regret_experiment,2024.2.4,121.07997228287773,1,0.5,0.7,0.2,2025-08-11 15h25.31.346068 -0700,
4,0,4,right,0.30057487497106194,None,2,0.6147015420137905,None,4,0,4,0,20.590124875016045,,,,,,,,,20.58433275000425,20.590124875016045,-0.000481416005641222,21.58471208298579,5,1,0.5,0.7,0.2,21.585169875004794,21.59246733301552,21.59246733301552,21.59246733301552,21.59246733301552,21.90307308296906,right,0.30057487497106194,None,right,0.30057487497106194,0.2,0,21.923426040972117,21.930883915978484,21.930883915978484,21.930883915978484,21.930883915978484,23.91723091597669,2,0.6147015420137905,23.929045207973104,24.55889612500323,2,24.55902929097647,24.567678207997233,25.55809683300322,25.55092962499475,21.59246733301552,23.93678937497316,23.93678937497316,23.93678937497316,23.93678937497316,23.93678937497316,0.6147015420137905,None,,,,578066,001,2025-08-11_15h25.20.198,regret_experiment,2024.2.4,121.07997228287773,1,0.5,0.7,0.2,2025-08-11 15h25.31.346068 -0700,
5,0,5,left,0.6712268330156803,None,2,0.9642341670114547,None,5,0,5,0,25.55809683300322,,,,,,,,,25.551573332981206,25.55809683300322,-0.0008375420002266765,26.550901375012472,6,1,0.5,0.7,0.2,26.551184291020036,26.557736540969927,26.557736540969927,26.557736540969927,26.557736540969927,27.23537741601467,left,0.6712268330156803,None,left,0.6712268330156803,0.5,0,27.254691415990237,27.261833833006676,27.261833833006676,27.261833833006676,27.261833833006676,29.238948874990456,2,0.9642341670114547,29.25037904101191,30.224610332981683,2,30.22471995797241,30.233074165997095,31.225603291008156,31.21792500000447,26.557736540969927,29.257047666003928,29.257047666003928,29.257047666003928,29.257047666003928,29.257047666003928,0.9642341670114547,None,,,,578066,001,2025-08-11_15h25.20.198,regret_experiment,2024.2.4,121.07997228287773,1,0.5,0.7,0.2,2025-08-11 15h25.31.346068 -0700,
6,0,6,right,0.6448686250369065,None,2,4.566456665983424,None,6,0,6,0,31.225603291008156,,,,,,,,,31.218772499996703,31.225603291008156,0.0009781660046428442,32.21725754102226,7,1,0.5,0.7,0.2,32.21762833301909,32.22369587497087,32.22369587497087,32.22369587497087,32.22369587497087,32.875952125003096,right,0.6448686250369065,None,right,0.6448686250369065,0.2,0,32.89541804097826,32.9034223749768,32.9034223749768,32.9034223749768,32.9034223749768,34.8838060409762,2,4.566456665983424,34.89543416601373,39.47684916597791,2,39.47702066600323,39.497843332996126,,40.4839549579774,32.22369587497087,34.9024424579693,34.9024424579693,34.9024424579693,34.9024424579693,34.9024424579693,4.566456665983424,None,,,,578066,001,2025-08-11_15h25.20.198,regret_experiment,2024.2.4,121.07997228287773,1,0.5,0.7,0.2,2025-08-11 15h25.31.346068 -0700,
7,0,7,up,0.37670691596576944,None,2,0.34195466700475663,None,7,0,7,0,40.49236958299298,,,,,,,,,40.48463541601086,40.49236958299298,0.007714207982644439,41.48401533300057,8,1,0.5,0.7,0.2,41.484528916014824,41.491367499984335,41.491367499984335,41.491367499984335,41.491367499984335,41.885093999968376,up,0.37670691596576944,None,up,0.37670691596576944,0.7,0,41.90429899998708,41.91188916598912,41.91188916598912,41.91188916598912,41.91188916598912,43.89040908298921,2,0.34195466700475663,43.90244429098675,44.25889733299846,2,44.25902925000992,44.26769783301279,45.256662582978606,45.25081674999092,,43.90957720798906,43.90957720798906,43.90957720798906,43.90957720798906,43.90957720798906,0.34195466700475663,None,,,,578066,001,2025-08-11_15h25.20.198,regret_experiment,2024.2.4,121.07997228287773,1,0.5,0.7,0.2,2025-08-11 15h25.31.346068 -0700,
8,0,8,left,0.3154067089781165,None,None,,,8,0,8,0,45.256662582978606,,,,,,,,,45.25119958299911,45.256662582978606,0.008037541003432125,46.24042820802424,9,1,0.5,0.7,0.2,46.240724791015964,46.257229749986436,46.257229749986436,46.257229749986436,46.257229749986436,46.575521250022575,left,0.3154067089781165,None,left,0.3154067089781165,0.5,1,46.59371179097798,46.60179758298909,46.60179758298909,46.60179758298909,46.60179758298909,48.583818958024494,NA,NA,48.584243915975094,48.58430762501666,None,48.584402750013396,48.590150207979605,49.59131858299952,49.584320582973305,46.250288791023195,,,,,,,,,,,578066,001,2025-08-11_15h25.20.198,regret_experiment,2024.2.4,121.07997228287773,1,0.5,0.7,0.2,2025-08-11 15h25.31.346068 -0700,
9,0,9,left,0.31812479201471433,None,None,,,9,0,9,0,49.59131858299952,,,,,,,,,49.58472191600595,49.59131858299952,0.0003708339645527303,50.57484324998222,10,1,0.5,0.7,0.2,50.575107916025445,50.583360916003585,50.583360916003585,50.583360916003585,50.583360916003585,50.90847345802467,left,0.31812479201471433,None,left,0.31812479201471433,0.5,1,50.92614241602132,50.93358662497485,50.93358662497485,50.93358662497485,50.93358662497485,52.91705925000133,NA,NA,52.91737633297453,52.91746679099742,None,52.91756837500725,52.92329070798587,53.91705466597341,53.906722832995,50.583360916003585,,,,,,,,,,,578066,001,2025-08-11_15h25.20.198,regret_experiment,2024.2.4,121.07997228287773,1,0.5,0.7,0.2,2025-08-11 15h25.31.346068 -0700,
10,0,10,left,0.4021124580176547,None,3,0.44247962499503046,None,10,0,10,0,53.91705466597341,,,,,,,,,53.90709687501658,53.91705466597341,-0.00042799999937415123,54.900756957998965,11,1,0.5,0.7,0.2,54.90105137502542,54.90669437497854,54.90669437497854,54.90669437497854,54.90669437497854,55.318797249987256,left,0.4021124580176547,None,left,0.4021124580176547,0.5,0,55.34004704101244,55.34787104098359,55.34787104098359,55.34787104098359,55.34787104098359,57.33429149998119,3,0.44247962499503046,57.34730062499875,57.80219608300831,3,57.802338875015266,57.80774870800087,58.808499499980826,58.80131791601889,54.90669437497854,57.35400887497235,57.35400887497235,57.35400887497235,57.35400887497235,57.35400887497235,0.44247962499503046,None,,,,578066,001,2025-08-11_15h25.20.198,regret_experiment,2024.2.4,121.07997228287773,1,0.5,0.7,0.2,2025-08-11 15h25.31.346068 -0700,
11,0,11,right,0.40625591698335484,None,3,0.3284511669771746,None,11,0,11,0,58.808499499980826,,,,,,,,,58.801891416020226,58.808499499980826,-0.0003768749884329736,59.80064899998251,12,1,0.5,0.7,0.2,59.80088950000936,59.80621362500824,59.80621362500824,59.80621362500824,59.80621362500824,60.2182852079859,right,0.40625591698335484,None,right,0.40625591698335484,0.2,0,60.238002832978964,60.24585687497165,60.24585687497165,60.24585687497165,60.24585687497165,62.22254879097454,3,0.3284511669771746,62.23479395802133,62.57232604100136,3,62.57246762502473,62.579966208024416,63.57517562498106,63.567886832985096,59.80621362500824,62.24186691601062,62.24186691601062,62.24186691601062,62.24186691601062,62.24186691601062,0.3284511669771746,None,,,,578066,001,2025-08-11_15h25.20.198,regret_experiment,2024.2.4,121.07997228287773,1,0.5,0.7,0.2,2025-08-11 15h25.31.346068 -0700,
12,0,12,up,0.4804472919786349,None,None,,,12,0,12,0,63.57517562498106,,,,,,,,,63.56851833302062,63.57517562498106,0.002815541985910386,64.56725195801118,13,1,0.5,0.7,0.2,64.56750299996929,64.57304720801767,64.57304720801767,64.57304720801767,64.57304720801767,65.05589708301704,up,0.4804472919786349,None,up,0.4804472919786349,0.7,1,65.07529558299575,65.08273716596887,65.08273716596887,65.08273716596887,65.08273716596887,67.05695270799333,NA,NA,67.05725645797793,67.05730799998855,None,67.05739029101096,67.06711599999107,68.05789179098792,68.0509403750184,64.57304720801767,,,,,,,,,,,578066,001,2025-08-11_15h25.20.198,regret_experiment,2024.2.4,121.07997228287773,1,0.5,0.7,0.2,2025-08-11 15h25.31.346068 -0700,
13,0,13,right,0.30217941699083894,None,3,0.3072922910214402,None,13,0,13,0,68.05789179098792,,,,,,,,,68.05151362501783,68.05789179098792,0.0005834999610669911,69.04088658298133,14,1,0.5,0.7,0.2,69.04112137499033,69.05076454102527,69.05076454102527,69.05076454102527,69.05076454102527,69.35742091597058,right,0.30217941699083894,None,right,0.30217941699083894,0.2,0,69.37634629098466,69.38468199997442,69.38468199997442,69.38468199997442,69.38468199997442,71.36702408298152,3,0.3072922910214402,71.3788953750045,71.70146004098933,3,71.7015774580068,71.70973345800303,72.70847733301343,72.7012350410223,69.05076454102527,71.38554791599745,71.38554791599745,71.38554791599745,71.38554791599745,71.38554791599745,0.3072922910214402,None,,,,578066,001,2025-08-11_15h25.20.198,regret_experiment,2024.2.4,121.07997228287773,1,0.5,0.7,0.2,2025-08-11 15h25.31.346068 -0700,
14,0,14,left,0.4382627499871887,None,3,0.33890479104593396,None,14,0,14,0,72.70847733301343,,,,,,,,,72.70179949997691,72.70847733301343,0.0002864580019377172,73.70155304099899,15,1,0.5,0.7,0.2,73.70182304101763,73.71791162498994,73.71791162498994,73.71791162498994,73.71791162498994,74.15925654099556,left,0.4382627499871887,None,left,0.4382627499871887,0.5,0,74.17870683298679,74.18633758299984,74.18633758299984,74.18633758299984,74.18633758299984,76.16705962497508,3,0.33890479104593396,76.17883487499785,76.52621787501266,3,76.52634295797907,76.54973462497583,,77.53385833301581,73.71791162498994,76.18581591598922,76.18581591598922,76.18581591598922,76.18581591598922,76.18581591598922,0.33890479104593396,None,,,,578066,001,2025-08-11_15h25.20.198,regret_experiment,2024.2.4,121.07997228287773,1,0.5,0.7,0.2,2025-08-11 15h25.31.346068 -0700,
15,0,15,right,0.3755125410389155,None,3,0.5832038330263458,None,15,0,15,0,77.5404047910124,,,,,,,,,77.5344019579934,77.5404047910124,0.008135207986924797,78.52372008300154,16,1,0.5,0.7,0.2,78.52398050000193,78.53358729102183,78.53358729102183,78.53358729102183,78.53358729102183,78.91822441597469,right,0.3755125410389155,None,right,0.3755125410389155,0.2,0,78.9377895409707,78.94541566597763,78.94541566597763,78.94541566597763,78.94541566597763,80.9228048750083,3,0.5832038330263458,80.93458204099443,81.53499808302149,3,81.53513550001662,81.5433412080165,82.54031870799372,82.53416758298408,78.53358729102183,80.94173912500264,80.94173912500264,80.94173912500264,80.94173912500264,80.94173912500264,0.5832038330263458,None,,,,578066,001,2025-08-11_15h25.20.198,regret_experiment,2024.2.4,121.07997228287773,1,0.5,0.7,0.2,2025-08-11 15h25.31.346068 -0700,
16,0,16,up,0.32807854196289554,None,None,,,16,0,16,0,82.54031870799372,,,,,,,,,82.53456166601973,82.54031870799372,-0.0005105839809402823,83.5342370410217,17,1,0.5,0.7,0.2,83.53446958301356,83.54041841597063,83.54041841597063,83.54041841597063,83.54041841597063,83.87547966599232,up,0.32807854196289554,None,up,0.32807854196289554,0.7,1,83.8944681250141,83.90228687500348,83.90228687500348,83.90228687500348,83.90228687500348,85.8848638330237,NA,NA,85.8853310829727,85.88540495798225,None,85.88550970802316,85.90050783299375,86.89182033302495,86.88464287499664,83.54041841597063,,,,,,,,,,,578066,001,2025-08-11_15h25.20.198,regret_experiment,2024.2.4,121.07997228287773,1,0.5,0.7,0.2,2025-08-11 15h25.31.346068 -0700,
17,0,17,up,0.35334379196865484,None,None,,,17,0,17,0,86.89182033302495,,,,,,,,,86.88526145799551,86.89182033302495,-0.0001759579754434526,87.88452770799631,18,1,0.5,0.7,0.2,87.88480399997206,87.89191399997799,87.89191399997799,87.89191399997799,87.89191399997799,88.25134966598125,up,0.35334379196865484,None,up,0.35334379196865484,0.7,1,88.2694260830176,88.27676362497732,88.27676362497732,88.27676362497732,88.27676362497732,90.25682270800462,NA,NA,90.25733275001403,90.25740250002127,None,90.25748012500117,90.26728700002423,91.2574804580072,91.25063295802101,87.89191399997799,,,,,,,,,,,578066,001,2025-08-11_15h25.20.198,regret_experiment,2024.2.4,121.07997228287773,1,0.5,0.7,0.2,2025-08-11 15h25.31.346068 -0700,
18,0,18,up,0.3226776249939576,None,3,0.36587070900714025,None,18,0,18,0,91.2574804580072,,,,,,,,,91.2512397079845,91.2574804580072,8.029199671000242e-05,92.24018454097677,19,1,0.5,0.7,0.2,92.24045283300802,92.25041583296843,92.25041583296843,92.25041583296843,92.25041583296843,92.57774916599737,up,0.3226776249939576,None,up,0.3226776249939576,0.7,0,92.59301416599192,92.60064874996897,92.60064874996897,92.60064874996897,92.60064874996897,94.5836692500161,3,0.36587070900714025,94.59564104099991,94.97450454102363,3,94.97464899998158,94.98312241601525,95.97329499997431,95.96744266600581,92.25041583296843,94.6023404999869,94.6023404999869,94.6023404999869,94.6023404999869,94.6023404999869,0.36587070900714025,None,,,,578066,001,2025-08-11_15h25.20.198,regret_experiment,2024.2.4,121.07997228287773,1,0.5,0.7,0.2,2025-08-11 15h25.31.346068 -0700,
19,0,19,left,0.3453789160121232,None,None,,,19,0,19,0,95.97329499997431,,,,,,,,,95.96782075002557,95.97329499997431,0.009071375010535121,96.95606462500291,20,1,0.5,0.7,0.2,96.95631450001383,96.97282158298185,96.97282158298185,96.97282158298185,96.97282158298185,97.32435358298244,left,0.3453789160121232,None,left,0.3453789160121232,0.5,1,97.34236333298031,97.35089970799163,97.35089970799163,97.35089970799163,97.35089970799163,99.3336697909981,NA,NA,99.33395262499107,99.33401370799402,None,99.3340973330196,99.3393828329863,100.33377729100175,100.32360291597433,96.96695512498263,,,,,,,,,,,578066,001,2025-08-11_15h25.20.198,regret_experiment,2024.2.4,121.07997228287773,1,0.5,0.7,0.2,2025-08-11 15h25.31.346068 -0700,
20,0,20,left,0.32023037504404783,None,None,,,20,0,20,0,100.33377729100175,,,,,,,,,100.32413437496871,100.33377729100175,-0.0001912500010803342,101.31725579098566,21,1,0.5,0.7,0.2,101.31770270800916,101.324781791016,101.324781791016,101.324781791016,101.324781791016,101.65354312502313,left,0.32023037504404783,None,left,0.32023037504404783,0.5,1,101.67200029100059,101.67956312501337,101.67956312501337,101.67956312501337,101.67956312501337,103.65744804101996,NA,NA,103.65775158297038,103.65780370798893,None,103.65788520796923,103.66718200000469,104.65712120797252,104.65117916598683,101.324781791016,,,,,,,,,,,578066,001,2025-08-11_15h25.20.198,regret_experiment,2024.2.4,121.07997228287773,1,0.5,0.7,0.2,2025-08-11 15h25.31.346068 -0700,
21,0,21,right,0.37930287496419623,None,3,0.5105757499695756,None,21,0,21,0,104.65712120797252,,,,,,,,,104.6515290410025,104.65712120797252,-0.0006547500379383564,105.65077608299907,22,1,0.5,0.7,0.2,105.6510835000081,105.65701020800043,105.65701020800043,105.65701020800043,105.65701020800043,106.04211974999635,right,0.37930287496419623,None,right,0.37930287496419623,0.2,0,106.06330537499161,106.07135562499752,106.07135562499752,106.07135562499752,106.07135562499752,108.05042250000406,3,0.5105757499695756,108.06285887496779,108.58536983298836,3,108.58560366596794,108.59400133299641,109.5915456659859,109.58430012501776,105.65701020800043,108.0708284159773,108.0708284159773,108.0708284159773,108.0708284159773,108.0708284159773,0.5105757499695756,None,,,,578066,001,2025-08-11_15h25.20.198,regret_experiment,2024.2.4,121.07997228287773,1,0.5,0.7,0.2,2025-08-11 15h25.31.346068 -0700,
22,0,22,up,0.3346487089875154,None,2,0.40035199996782467,None,22,0,22,0,109.5915456659859,,,,,,,,,109.58472066599643,109.5915456659859,-0.0007798750302754343,110.5844683329924,23,1,0.5,0.7,0.2,110.58471262501553,110.60109183297027,110.60109183297027,110.60109183297027,110.60109183297027,110.94186254101805,up,0.3346487089875154,None,up,0.3346487089875154,0.7,0,110.96162066597026,110.969363583019,110.969363583019,110.969363583019,110.969363583019,112.95030575001147,2,0.40035199996782467,112.96226383297471,113.37432558299042,2,113.37444437498925,113.38328954100143,114.3748740410083,114.36777729098685,110.60109183297027,112.96881587500684,112.96881587500684,112.96881587500684,112.96881587500684,112.96881587500684,0.40035199996782467,None,,,,578066,001,2025-08-11_15h25.20.198,regret_experiment,2024.2.4,121.07997228287773,1,0.5,0.7,0.2,2025-08-11 15h25.31.346068 -0700,
23,0,23,up,3.328706916014198,None,None,,,23,0,23,0,114.3748740410083,,,,,,,,,114.3684388329857,114.3748740410083,0.0005290000117383897,115.36761470796773,24,1,0.5,0.7,0.2,115.36794320802437,115.37384920800105,115.37384920800105,115.37384920800105,115.37384920800105,118.7080550409737,up,3.328706916014198,None,up,3.328706916014198,0.7,1,118.72584241599543,118.73441145801917,118.73441145801917,118.73441145801917,118.73441145801917,120.71751370799029,NA,NA,120.7177751249983,120.71783012500964,None,120.71790350001538,120.72304429102223,121.71701995801413,121.70580724999309,115.37384920800105,,,,,,,,,,,578066,001,2025-08-11_15h25.20.198,regret_experiment,2024.2.4,121.07997228287773,1,0.5,0.7,0.2,2025-08-11 15h25.31.346068 -0700,
24,0,24,left,0.4440409590024501,None,3,0.6992659170064144,None,24,0,24,0,121.71701995801413,,,,,,,,,121.70619133301079,121.71701995801413,-0.000808333046734333,122.70107554097194,25,1,0.5,0.7,0.2,122.70144454098772,122.70792391599389,122.70792391599389,122.70792391599389,122.70792391599389,123.15721604099963,left,0.4440409590024501,None,left,0.4440409590024501,0.5,0,123.17666695802473,123.18511920800665,123.18511920800665,123.18511920800665,123.18511920800665,125.16078224999364,3,0.6992659170064144,125.17051170801278,125.88473054097267,3,125.88485445798142,125.8927344160038,126.89112574997125,126.88456633297028,122.70792391599389,125.17755341599695,125.17755341599695,125.17755341599695,125.17755341599695,125.17755341599695,0.6992659170064144,None,,,,578066,001,2025-08-11_15h25.20.198,regret_experiment,2024.2.4,121.07997228287773,1,0.5,0.7,0.2,2025-08-11 15h25.31.346068 -0700,
25,0,25,right,3.1867955420166254,None,3,0.48661079205339774,None,25,0,25,0,126.89112574997125,,,,,,,,,126.88514941598987,126.89112574997125,0.00038833299186080694,127.8843402909697,26,1,0.5,0.7,0.2,127.88455524999881,127.8914407910197,127.8914407910197,127.8914407910197,127.8914407910197,131.08485204097815,right,3.1867955420166254,None,right,3.1867955420166254,0.2,0,131.10512520797784,131.1129917500075,131.1129917500075,131.1129917500075,131.1129917500075,133.09058229101356,3,0.48661079205339774,133.10338512499584,133.60166220797691,3,133.60179437499028,133.60716812498868,134.60048249998363,134.59007058298448,127.8914407910197,133.11020325002028,133.11020325002028,133.11020325002028,133.11020325002028,133.11020325002028,0.48661079205339774,None,,,,578066,001,2025-08-11_15h25.20.198,regret_experiment,2024.2.4,121.07997228287773,1,0.5,0.7,0.2,2025-08-11 15h25.31.346068 -0700,
26,0,26,left,0.32435516704572365,None,None,,,26,0,26,0,134.60048249998363,,,,,,,,,134.59061716601718,134.60048249998363,0.004927709000185132,135.5844533329946,27,1,0.5,0.7,0.2,135.5848775000195,135.60049895802513,135.60049895802513,135.60049895802513,135.60049895802513,135.93473104102304,left,0.32435516704572365,None,left,0.32435516704572365,0.5,1,135.95344204100547,135.96103516599396,135.96103516599396,135.96103516599396,135.96103516599396,137.94063633301994,NA,NA,137.94092650001403,137.9409801249858,None,137.94106008298695,137.95041099999798,138.93992370797787,138.933974375017,135.59084133297438,,,,,,,,,,,578066,001,2025-08-11_15h25.20.198,regret_experiment,2024.2.4,121.07997228287773,1,0.5,0.7,0.2,2025-08-11 15h25.31.346068 -0700,
27,0,27,left,0.263088500010781,None,None,,,27,0,27,0,138.93992370797787,,,,,,,,,138.934374916018,138.93992370797787,0.009866083040833473,139.93398133298615,28,1,0.5,0.7,0.2,139.9346569160116,139.94163387501612,139.94163387501612,139.94163387501612,139.94163387501612,140.2078608329757,left,0.263088500010781,None,left,0.263088500010781,0.5,1,140.22549783298746,140.23294337501284,140.23294337501284,140.23294337501284,140.23294337501284,142.2172046250198,NA,NA,142.217616791022,142.21768404101022,None,142.21777375001693,142.22380512498785,143.2171782910009,143.20698429096956,139.94163387501612,,,,,,,,,,,578066,001,2025-08-11_15h25.20.198,regret_experiment,2024.2.4,121.07997228287773,1,0.5,0.7,0.2,2025-08-11 15h25.31.346068 -0700,
28,0,28,left,0.31566983298398554,None,None,,,28,0,28,0,143.2171782910009,,,,,,,,,143.2073608749779,143.2171782910009,-0.0005139590357430279,144.20071100001223,29,1,0.5,0.7,0.2,144.20095579099143,144.20826554100495,144.20826554100495,144.20826554100495,144.20826554100495,144.52603966597235,left,0.31566983298398554,None,left,0.31566983298398554,0.5,1,144.54453187499894,144.55225733300904,144.55225733300904,144.55225733300904,144.55225733300904,146.53421416599303,NA,NA,146.53468804102158,146.53476412501186,None,146.5348592500086,146.54028412501793,147.5421465000254,147.53476420801599,144.20826554100495,,,,,,,,,,,578066,001,2025-08-11_15h25.20.198,regret_experiment,2024.2.4,121.07997228287773,1,0.5,0.7,0.2,2025-08-11 15h25.31.346068 -0700,
29,0,29,left,0.28625920799095184,None,3,0.3868810419808142,None,29,0,29,0,147.5421465000254,,,,,,,,,147.53517841600114,147.5421465000254,0.0003818750265054405,148.53473604097962,30,1,0.5,0.7,0.2,148.53509783302434,148.54207737499382,148.54207737499382,148.54207737499382,148.54207737499382,148.8350572080235,left,0.28625920799095184,None,left,0.28625920799095184,0.5,0,148.85564824996982,148.86344229098177,148.86344229098177,148.86344229098177,148.86344229098177,150.84022725000978,3,0.3868810419808142,150.85180791601306,151.25171412498457,3,151.25185549998423,151.25998224999057,152.2589755000081,152.25102191598853,148.54207737499382,150.8581377500086,150.8581377500086,150.8581377500086,150.8581377500086,150.8581377500086,0.3868810419808142,None,,,,578066,001,2025-08-11_15h25.20.198,regret_experiment,2024.2.4,121.07997228287773,1,0.5,0.7,0.2,2025-08-11 15h25.31.346068 -0700,
30,0,30,up,0.7230367499869317,None,None,,,30,0,30,0,152.2589755000081,,,,,,,,,152.25172179099172,152.2589755000081,-5.258299643173814e-05,153.25045104097808,31,1,0.5,0.7,0.2,153.25070550001692,153.257327875006,153.257327875006,153.257327875006,153.257327875006,153.9856174159795,up,0.7230367499869317,None,up,0.7230367499869317,0.7,0,154.00721862498904,154.0160433750134,154.0160433750134,154.0160433750134,154.0160433750134,155.9913137080148,NA,NA,155.99159970798064,155.99166012497153,None,155.99173200002406,156.0003189999843,156.99010820797412,156.9841522909701,153.257327875006,,,,,,,,,,,578066,001,2025-08-11_15h25.20.198,regret_experiment,2024.2.4,121.07997228287773,1,0.5,0.7,0.2,2025-08-11 15h25.31.346068 -0700,
31,0,31,right,0.915430249995552,None,None,,,31,0,31,0,156.99010820797412,,,,,,,,,156.98458245798247,156.99010820797412,0.009290084009990096,157.98296166601358,32,1,0.5,0.7,0.2,157.98318887501955,157.98748937499477,157.98748937499477,157.98748937499477,157.98748937499477,158.90741774998605,right,0.915430249995552,None,right,0.915430249995552,0.2,0,158.9268720410182,158.93485245801276,158.93485245801276,158.93485245801276,158.93485245801276,160.91723329102388,NA,NA,160.91751037497306,160.91756400000304,None,160.91765299998224,160.9240208750125,161.9255520000006,161.91784679098055,157.98748937499477,,,,,,,,,,,578066,001,2025-08-11_15h25.20.198,regret_experiment,2024.2.4,121.07997228287773,1,0.5,0.7,0.2,2025-08-11 15h25.31.346068 -0700,
32,0,32,left,0.377851166005712,None,None,,,32,0,32,0,161.9255520000006,,,,,,,,,161.91840983298607,161.9255520000006,0.0008213329710997641,162.91765449999366,33,1,0.5,0.7,0.2,162.91802670800826,162.92398424999556,162.92398424999556,162.92398424999556,162.92398424999556,163.3086532910238,left,0.377851166005712,None,left,0.377851166005712,0.5,0,163.3301625829772,163.33802254102193,163.33802254102193,163.33802254102193,163.33802254102193,165.31699829100398,NA,NA,165.3172634160146,165.31731433299137,None,165.3173852909822,165.3276867910172,166.32376708299853,166.31751845800318,162.92398424999556,,,,,,,,,,,578066,001,2025-08-11_15h25.20.198,regret_experiment,2024.2.4,121.07997228287773,1,0.5,0.7,0.2,2025-08-11 15h25.31.346068 -0700,
33,0,33,right,0.26362966699525714,None,None,,,33,0,33,0,166.32376708299853,,,,,,,,,166.3178715829854,166.32376708299853,0.0005462500266730785,167.3074142910191,34,1,0.5,0.7,0.2,167.3077862909995,167.31671450001886,167.31671450001886,167.31671450001886,167.31671450001886,167.58587354101473,right,0.26362966699525714,None,right,0.26362966699525714,0.2,0,167.60549587500282,167.6133149159723,167.6133149159723,167.6133149159723,167.6133149159723,169.5902362909983,NA,NA,169.5905187909957,169.59056879096897,None,169.59063950000564,169.6004152079695,170.58973904099548,170.5839747079881,167.31671450001886,,,,,,,,,,,578066,001,2025-08-11_15h25.20.198,regret_experiment,2024.2.4,121.07997228287773,1,0.5,0.7,0.2,2025-08-11 15h25.31.346068 -0700,
34,0,34,up,0.2774474160396494,None,None,,,34,0,34,0,170.58973904099548,,,,,,,,,170.58434800000396,170.58973904099548,-0.0007887909887358546,171.57384116598405,35,1,0.5,0.7,0.2,171.57413324998925,171.58356087497668,171.58356087497668,171.58356087497668,171.58356087497668,171.86809912498575,up,0.2774474160396494,None,up,0.2774474160396494,0.7,0,171.8876791250077,171.895241582999,171.895241582999,171.895241582999,171.895241582999,173.87204658298288,NA,NA,173.87234387500212,173.87240774999373,None,173.87249658297515,173.88368154101772,174.87321345799137,174.86725391598884,171.58356087497668,,,,,,,,,,,578066,001,2025-08-11_15h25.20.198,regret_experiment,2024.2.4,121.07997228287773,1,0.5,0.7,0.2,2025-08-11 15h25.31.346068 -0700,
35,0,35,left,0.3142066660220735,None,None,,,35,0,35,0,174.87321345799137,,,,,,,,,174.86768533301074,174.87321345799137,0.000799165980424732,175.85729458299465,36,1,0.5,0.7,0.2,175.85753733298043,175.86703216598835,175.86703216598835,175.86703216598835,175.86703216598835,176.1851459579775,left,0.3142066660220735,None,left,0.3142066660220735,0.5,1,176.20433362497715,176.21220437501324,176.21220437501324,176.21220437501324,176.21220437501324,178.1902727499837,NA,NA,178.1905729160062,178.1906316659879,None,178.1907056659693,178.200462082983,179.1904461659724,179.1844927080092,175.86703216598835,,,,,,,,,,,578066,001,2025-08-11_15h25.20.198,regret_experiment,2024.2.4,121.07997228287773,1,0.5,0.7,0.2,2025-08-11 15h25.31.346068 -0700,
36,0,36,left,0.27702262497041374,None,None,,,36,0,36,0,179.1904461659724,,,,,,,,,179.18507079099072,179.1904461659724,-0.00014645897317677736,180.1736330409767,37,1,0.5,0.7,0.2,180.17389625002397,180.18383504101075,180.18383504101075,180.18383504101075,180.18383504101075,180.4700965830125,left,0.27702262497041374,None,left,0.27702262497041374,0.5,0,180.4907686659717,180.4995252909721,180.4995252909721,180.4995252909721,180.4995252909721,182.47375779098365,NA,NA,182.4741359159816,182.47419375000754,None,182.4742662080098,182.48395283299033,183.4748805409763,183.46778200002154,180.18383504101075,,,,,,,,,,,578066,001,2025-08-11_15h25.20.198,regret_experiment,2024.2.4,121.07997228287773,1,0.5,0.7,0.2,2025-08-11 15h25.31.346068 -0700,
37,0,37,up,0.33732233301270753,None,None,,,37,0,37,0,183.4748805409763,,,,,,,,,183.46834045799915,183.4748805409763,0.0006933750119060278,184.46750704100123,38,1,0.5,0.7,0.2,184.46777450002264,184.47471295797732,184.47471295797732,184.47471295797732,184.47471295797732,184.81886283302447,up,0.33732233301270753,None,up,0.33732233301270753,0.7,0,184.8382899580174,184.84614537499147,184.84614537499147,184.84614537499147,184.84614537499147,186.82394370797556,NA,NA,186.82422200002475,186.82427229097812,None,186.82435349997832,186.8336402910063,187.82431708299555,187.81776316597825,184.47471295797732,,,,,,,,,,,578066,001,2025-08-11_15h25.20.198,regret_experiment,2024.2.4,121.07997228287773,1,0.5,0.7,0.2,2025-08-11 15h25.31.346068 -0700,
38,0,38,up,0.3187723750015721,None,None,,,38,0,38,0,187.82431708299555,,,,,,,,,187.81836854101857,187.82431708299555,4.3666979763656855e-05,188.8070587909897,39,1,0.5,0.7,0.2,188.80731166602345,188.81708841602085,188.81708841602085,188.81708841602085,188.81708841602085,189.14067350002006,up,0.3187723750015721,None,up,0.3187723750015721,0.7,1,189.15837320801802,189.1670845830231,189.1670845830231,189.1670845830231,189.1670845830231,191.15059849998215,NA,NA,191.15102829097304,191.15109937498346,None,191.15119237499312,191.15733695798554,192.15788979100762,192.15109133301303,188.81708841602085,,,,,,,,,,,578066,001,2025-08-11_15h25.20.198,regret_experiment,2024.2.4,121.07997228287773,1,0.5,0.7,0.2,2025-08-11 15h25.31.346068 -0700,
39,0,39,right,0.295491042023059,None,None,,,39,0,39,0,192.15788979100762,,,,,,,,,192.15170004102401,192.15788979100762,0.000586042006034404,193.1507550830138,40,1,0.5,0.7,0.2,193.15101954102283,193.15645083301933,193.15645083301933,193.15645083301933,193.15645083301933,193.45851845800644,right,0.295491042023059,None,right,0.295491042023059,0.2,0,193.4781845830148,193.48591808299534,193.48591808299534,193.48591808299534,193.48591808299534,195.46694283297984,NA,NA,195.46718074998353,195.4672344159917,None,195.4673011659761,195.4724570409744,196.46708362497156,196.45676254096907,193.15645083301933,,,,,,,,,,,578066,001,2025-08-11_15h25.20.198,regret_experiment,2024.2.4,121.07997228287773,1,0.5,0.7,0.2,2025-08-11 15h25.31.346068 -0700,
40,0,40,right,0.3958502499735914,None,None,,,40,0,40,0,196.46708362497156,,,,,,,,,196.4573033329798,196.46708362497156,-0.00011854199692606926,197.4506205000216,41,1,0.5,0.7,0.2,197.45091141597368,197.45633349998388,197.45633349998388,197.45633349998388,197.45633349998388,197.86062620801385,right,0.3958502499735914,None,right,0.3958502499735914,0.2,1,197.8786770000006,197.88638083299156,197.88638083299156,197.88638083299156,197.88638083299156,199.8669843749958,NA,NA,199.86735741602024,199.86740837502293,None,199.86748629098292,199.8726978750201,200.87350400001742,200.86738620797405,197.45633349998388,,,,,,,,,,,578066,001,2025-08-11_15h25.20.198,regret_experiment,2024.2.4,121.07997228287773,1,0.5,0.7,0.2,2025-08-11 15h25.31.346068 -0700,
41,0,41,right,0.31242620799457654,None,None,,,41,0,41,0,200.87350400001742,,,,,,,,,200.86775016598403,200.87350400001742,0.0003143750363960862,201.86731583299115,42,1,0.5,0.7,0.2,201.8675495830248,201.8727254580008,201.8727254580008,201.8727254580008,201.8727254580008,202.19270616600988,right,0.31242620799457654,None,right,0.31242620799457654,0.2,0,202.21168412500992,202.2193984159967,202.2193984159967,202.2193984159967,202.2193984159967,204.20032620802522,NA,NA,204.2007719160174,204.20084750000387,None,204.20093595801154,204.20691412501037,205.20805854100036,205.20114062499488,201.8727254580008,,,,,,,,,,,578066,001,2025-08-11_15h25.20.198,regret_experiment,2024.2.4,121.07997228287773,1,0.5,0.7,0.2,2025-08-11 15h25.31.346068 -0700,
42,0,42,up,0.36526200000662357,None,None,,,42,0,42,0,205.20805854100036,,,,,,,,,205.20181116601452,205.20805854100036,0.0009373750071972609,206.20104766602162,43,1,0.5,0.7,0.2,206.20141475001583,206.20721074996982,206.20721074996982,206.20721074996982,206.20721074996982,206.57463950000238,up,0.36526200000662357,None,up,0.36526200000662357,0.7,1,206.59493099997053,206.60292166599538,206.60292166599538,206.60292166599538,206.60292166599538,208.58367783296853,NA,NA,208.58406066597672,208.58411991602043,None,208.584200665995,208.58942991599906,209.58369787497213,209.57371183298528,206.20721074996982,,,,,,,,,,,578066,001,2025-08-11_15h25.20.198,regret_experiment,2024.2.4,121.07997228287773,1,0.5,0.7,0.2,2025-08-11 15h25.31.346068 -0700,
43,0,43,up,0.5359818750293925,None,None,,,43,0,43,0,209.58369787497213,,,,,,,,,209.57419079099782,209.58369787497213,-0.00039962498703971505,210.56733708298998,44,1,0.5,0.7,0.2,210.56758249999257,210.57290208298946,210.57290208298946,210.57290208298946,210.57290208298946,211.11827999999514,up,0.5359818750293925,None,up,0.5359818750293925,0.7,1,211.13652837497648,211.14407308300724,211.14407308300724,211.14407308300724,211.14407308300724,213.134300582984,NA,NA,213.13459299999522,213.1346458750195,None,213.13473020802485,213.14017479098402,214.1402224159683,214.13382241601357,210.57290208298946,,,,,,,,,,,578066,001,2025-08-11_15h25.20.198,regret_experiment,2024.2.4,121.07997228287773,1,0.5,0.7,0.2,2025-08-11 15h25.31.346068 -0700,
44,0,44,up,0.39431558398064226,None,None,,,44,0,44,0,214.1402224159683,,,,,,,,,214.13427620800212,214.1402224159683,-0.0003992499550804496,215.1238195829792,45,1,0.5,0.7,0.2,215.12408287497237,215.13357858301606,215.13357858301606,215.13357858301606,215.13357858301606,215.53161850001197,up,0.39431558398064226,None,up,0.39431558398064226,0.7,0,215.54894391598646,215.55639116599923,215.55639116599923,215.55639116599923,215.55639116599923,217.533714374993,NA,NA,217.53404541598866,217.5340970000252,None,217.534199332993,217.53911900002277,218.5335364160128,218.52363454102306,215.13357858301606,,,,,,,,,,,578066,001,2025-08-11_15h25.20.198,regret_experiment,2024.2.4,121.07997228287773,1,0.5,0.7,0.2,2025-08-11 15h25.31.346068 -0700,
45,0,45,left,0.31159050000132993,None,None,,,45,0,45,0,218.5335364160128,,,,,,,,,218.52406575001078,218.5335364160128,-0.0005699170287698507,219.51742754102452,46,1,0.5,0.7,0.2,219.51794200000586,219.52485733298818,219.52485733298818,219.52485733298818,219.52485733298818,219.84449091600254,left,0.31159050000132993,None,left,0.31159050000132993,0.5,1,219.86221612500958,219.87028733297484,219.87028733297484,219.87028733297484,219.87028733297484,221.85039500001585,NA,NA,221.8506703749881,221.85072783299256,None,221.8508045829949,221.85548458300764,222.8503356659785,222.8402548750164,219.52485733298818,,,,,,,,,,,578066,001,2025-08-11_15h25.20.198,regret_experiment,2024.2.4,121.07997228287773,1,0.5,0.7,0.2,2025-08-11 15h25.31.346068 -0700,
46,0,46,left,0.34708570898510516,None,None,,,46,0,46,0,222.8503356659785,,,,,,,,,222.84076862497022,222.8503356659785,-0.0003869159845635295,223.8344504580018,47,1,0.5,0.7,0.2,223.83490712498315,223.84210637497017,223.84210637497017,223.84210637497017,223.84210637497017,224.20218745799502,left,0.34708570898510516,None,left,0.34708570898510516,0.5,0,224.2221825000015,224.22984387498582,224.22984387498582,224.22984387498582,224.22984387498582,226.2067739579943,NA,NA,226.20717912499094,226.20724775001872,None,226.20734154101228,226.21722870797385,227.20643883297453,227.20071308297338,223.84210637497017,,,,,,,,,,,578066,001,2025-08-11_15h25.20.198,regret_experiment,2024.2.4,121.07997228287773,1,0.5,0.7,0.2,2025-08-11 15h25.31.346068 -0700,
47,0,47,right,0.2686442089616321,None,None,,,47,0,47,0,227.20643883297453,,,,,,,,,227.20107316598296,227.20643883297453,-0.0008256660075858235,228.19054129096912,48,1,0.5,0.7,0.2,228.19079016597243,228.20030287501868,228.20030287501868,228.20030287501868,228.20030287501868,228.47531512501882,right,0.2686442089616321,None,right,0.2686442089616321,0.2,0,228.49506358301733,228.50295708299382,228.50295708299382,228.50295708299382,228.50295708299382,230.48366187501233,NA,NA,230.4839169579791,230.4839669999783,None,230.4840371250175,230.48916129098507,231.48371825000504,231.4734337910195,228.20030287501868,,,,,,,,,,,578066,001,2025-08-11_15h25.20.198,regret_experiment,2024.2.4,121.07997228287773,1,0.5,0.7,0.2,2025-08-11 15h25.31.346068 -0700,
48,0,48,up,0.2669752499787137,None,None,,,48,0,48,0,231.48371825000504,,,,,,,,,231.47388908301946,231.48371825000504,-0.00022279098629951477,232.4674046660075,49,1,0.5,0.7,0.2,232.46765504102223,232.47460658301134,232.47460658301134,232.47460658301134,232.47460658301134,232.7517456249916,up,0.2669752499787137,None,up,0.2669752499787137,0.7,0,232.77125383302337,232.77913012501085,232.77913012501085,232.77913012501085,232.77913012501085,234.75549095799215,NA,NA,234.75587145797908,234.7559217499802,None,234.7559984580148,234.76765037496807,235.75776483298978,235.7512677499908,232.47460658301134,,,,,,,,,,,578066,001,2025-08-11_15h25.20.198,regret_experiment,2024.2.4,121.07997228287773,1,0.5,0.7,0.2,2025-08-11 15h25.31.346068 -0700,
49,0,49,left,0.3507016249932349,None,None,,,49,0,49,0,235.75776483298978,,,,,,,,,235.75174479099223,235.75776483298978,0.0018439579871483147,236.75121779099572,50,1,0.5,0.7,0.2,236.75152037502266,236.76767724996898,236.76767724996898,236.76767724996898,236.76767724996898,237.12395104102325,left,0.3507016249932349,None,left,0.3507016249932349,0.5,0,237.14320741599659,237.1509391249856,237.1509391249856,237.1509391249856,237.1509391249856,239.13399962498806,NA,NA,239.1344691659906,239.1345484579797,None,239.13466033298755,239.1408216250129,240.1411776660243,240.1340650409693,236.76767724996898,,,,,,,,,,,578066,001,2025-08-11_15h25.20.198,regret_experiment,2024.2.4,121.07997228287773,1,0.5,0.7,0.2,2025-08-11 15h25.31.346068 -0700,
50,0,50,right,0.27165841596433893,None,None,,,50,0,50,0,240.1411776660243,,,,,,,,,240.13448758301092,240.1411776660243,-0.00010925001697614789,241.1343975830241,51,1,0.5,0.7,0.2,241.13471208297415,241.14171666599577,241.14171666599577,241.14171666599577,241.14171666599577,241.4180897080223,right,0.27165841596433893,None,right,0.27165841596433893,0.2,0,241.43831270799274,241.44556883297628,241.44556883297628,241.44556883297628,241.44556883297628,243.42359145800583,NA,NA,243.42388700001175,243.42393704102142,None,243.42400658299448,243.43356033298187,244.4246702499804,244.417639916006,241.14171666599577,,,,,,,,,,,578066,001,2025-08-11_15h25.20.198,regret_experiment,2024.2.4,121.07997228287773,1,0.5,0.7,0.2,2025-08-11 15h25.31.346068 -0700,
51,0,51,up,0.2596106660203077,None,None,,,51,0,51,0,244.4246702499804,,,,,,,,,244.41811129101552,244.4246702499804,0.000750333012547344,245.41782887501176,52,1,0.5,0.7,0.2,245.41820041602477,245.42510445800144,245.42510445800144,245.42510445800144,245.42510445800144,245.6900698330137,up,0.2596106660203077,None,up,0.2596106660203077,0.7,0,245.7091563330032,245.7173712499789,245.7173712499789,245.7173712499789,245.7173712499789,247.70064141601324,NA,NA,247.70108687499305,247.70115616597468,None,247.7012420410174,247.7071897080168,248.7003465410089,248.69031591597013,245.42510445800144,,,,,,,,,,,578066,001,2025-08-11_15h25.20.198,regret_experiment,2024.2.4,121.07997228287773,1,0.5,0.7,0.2,2025-08-11 15h25.31.346068 -0700,
52,0,52,left,0.5234972920152359,None,None,,,52,0,52,0,248.7003465410089,,,,,,,,,248.69074758299394,248.7003465410089,-0.0007867499953135848,249.6842932080035,53,1,0.5,0.7,0.2,249.68456237501232,249.69032975001028,249.69032975001028,249.69032975001028,249.69032975001028,250.21885745797772,left,0.5234972920152359,None,left,0.5234972920152359,0.5,0,250.2386321250233,250.2465015000198,250.2465015000198,250.2465015000198,250.2465015000198,252.223359333002,NA,NA,252.22365116601577,252.22370470798342,None,252.2237922080094,252.233730958018,253.22289533301955,253.2171652080142,249.69032975001028,,,,,,,,,,,578066,001,2025-08-11_15h25.20.198,regret_experiment,2024.2.4,121.07997228287773,1,0.5,0.7,0.2,2025-08-11 15h25.31.346068 -0700,
53,0,53,right,0.3183339170063846,None,None,,,53,0,53,0,253.22289533301955,,,,,,,,,253.21752129099332,253.22289533301955,-0.0008154999813996255,254.2070214159903,54,1,0.5,0.7,0.2,254.2072617500089,254.2171785410028,254.2171785410028,254.2171785410028,254.2171785410028,254.5418311660178,right,0.3183339170063846,None,right,0.3183339170063846,0.2,1,254.56080433301395,254.56848308298504,254.56848308298504,254.56848308298504,254.56848308298504,256.55062179098604,NA,NA,256.5512379159918,256.5513051250018,None,256.55140004097484,256.5565141660045,257.5567208749708,257.5505300409859,254.2171785410028,,,,,,,,,,,578066,001,2025-08-11_15h25.20.198,regret_experiment,2024.2.4,121.07997228287773,1,0.5,0.7,0.2,2025-08-11 15h25.31.346068 -0700,
54,0,54,right,0.29478458303492516,None,None,,,54,0,54,0,257.5567208749708,,,,,,,,,257.5509290409973,257.5567208749708,-0.00040616700425744057,258.54035316599766,55,1,0.5,0.7,0.2,258.54057387501234,258.5502970829839,258.5502970829839,258.5502970829839,258.5502970829839,258.8514125410002,right,0.29478458303492516,None,right,0.29478458303492516,0.2,0,258.87173987500137,258.87903729098616,258.87903729098616,258.87903729098616,258.87903729098616,260.85536270798184,NA,NA,260.85574437497417,260.85580579098314,None,260.8558990000165,260.86736416601343,261.8566196250031,261.8504962080042,258.5502970829839,,,,,,,,,,,578066,001,2025-08-11_15h25.20.198,regret_experiment,2024.2.4,121.07997228287773,1,0.5,0.7,0.2,2025-08-11 15h25.31.346068 -0700,
55,0,55,up,0.26805020798929036,None,None,,,55,0,55,0,261.8566196250031,,,,,,,,,261.85104608297115,261.8566196250031,0.0008305830415338278,262.8405572079937,56,1,0.5,0.7,0.2,262.84081220801454,262.85043250001036,262.85043250001036,262.85043250001036,262.85043250001036,263.1237557500135,up,0.26805020798929036,None,up,0.26805020798929036,0.7,1,263.14203070796793,263.1503580409917,263.1503580409917,263.1503580409917,263.1503580409917,265.13396162498975,NA,NA,265.1343984999694,265.1344735000166,None,265.1345879160217,265.1399580829893,266.1412049580249,266.1346475830069,262.85043250001036,,,,,,,,,,,578066,001,2025-08-11_15h25.20.198,regret_experiment,2024.2.4,121.07997228287773,1,0.5,0.7,0.2,2025-08-11 15h25.31.346068 -0700,
56,0,56,up,0.32168495800578967,None,None,,,56,0,56,0,266.1412049580249,,,,,,,,,266.13503329100786,266.1412049580249,0.0005154579994268715,267.1339532909915,57,1,0.5,0.7,0.2,267.134218125022,267.1401798329898,267.1401798329898,267.1401798329898,267.1401798329898,267.468821166025,up,0.32168495800578967,None,up,0.32168495800578967,0.7,1,267.487816000008,267.4953938329709,267.4953938329709,267.4953938329709,267.4953938329709,269.47393987502437,NA,NA,269.4742804999696,269.4743390000076,None,269.4744234160171,269.4836774999858,270.47503149998374,270.4677650409867,267.1401798329898,,,,,,,,,,,578066,001,2025-08-11_15h25.20.198,regret_experiment,2024.2.4,121.07997228287773,1,0.5,0.7,0.2,2025-08-11 15h25.31.346068 -0700,
57,0,57,up,0.13244454195955768,None,None,,,57,0,57,0,270.47503149998374,,,,,,,,,270.468350708019,270.47503149998374,0.0007091249572113156,271.46730725001544,58,1,0.5,0.7,0.2,271.4675480410224,271.4728731249925,271.4728731249925,271.4728731249925,271.4728731249925,271.60891637497116,up,0.13244454195955768,None,up,0.13244454195955768,0.7,1,271.6268817500095,271.6351165000233,271.6351165000233,271.6351165000233,271.6351165000233,273.6174379159929,NA,NA,273.61794774996815,273.618016124994,None,273.61810545797925,273.6239149160101,274.6246744579985,274.6173832080094,271.4728731249925,,,,,,,,,,,578066,001,2025-08-11_15h25.20.198,regret_experiment,2024.2.4,121.07997228287773,1,0.5,0.7,0.2,2025-08-11 15h25.31.346068 -0700,
58,0,58,up,0.23479520803084597,None,None,,,58,0,58,0,274.6246744579985,,,,,,,,,274.6177937909961,274.6246744579985,-0.00024999998277053237,275.61807566601783,59,1,0.5,0.7,0.2,275.61845079099294,275.6341465829755,275.6341465829755,275.6341465829755,275.6341465829755,275.8848962910124,up,0.23479520803084597,None,up,0.23479520803084597,0.7,0,275.9058059999952,275.91325049998704,275.91325049998704,275.91325049998704,275.91325049998704,277.8909894999815,NA,NA,277.8912852079957,277.8913389579975,None,277.89142370800255,277.90025104099186,278.88978208298795,278.88404316600645,275.6341465829755,,,,,,,,,,,578066,001,2025-08-11_15h25.20.198,regret_experiment,2024.2.4,121.07997228287773,1,0.5,0.7,0.2,2025-08-11 15h25.31.346068 -0700,
59,0,59,left,0.2626634160405956,None,None,,,59,0,59,0,278.88978208298795,,,,,,,,,278.88441870798124,278.88978208298795,0.009090874984394759,279.87415008299286,60,1,0.5,0.7,0.2,279.8745247909683,279.8894578749896,279.8894578749896,279.8894578749896,279.8894578749896,280.15578937501414,left,0.2626634160405956,None,left,0.2626634160405956,0.5,0,280.17506937502185,280.18233195797075,280.18233195797075,280.18233195797075,280.18233195797075,282.16766779101454,NA,NA,282.1681027499726,282.1681707079988,None,282.16824991599424,282.17407150001964,283.186123707972,283.15707941597793,279.88366904098075,,,,,,,,,,,578066,001,2025-08-11_15h25.20.198,regret_experiment,2024.2.4,121.07997228287773,1,0.5,0.7,0.2,2025-08-11 15h25.31.346068 -0700,
,,,,,,,,,,,,,,,,,,,,,,,,,,,,,,,,,,,,,,,,,,,,,,,,,,,,,,,,,,,,,,,,,,,N/A,283.1792226249818,283.186123707972,,,,,,,,,,,,
