thisN,thisTrialN,thisRepN,key_resp_1.keys,key_resp_1.rt,key_resp_1.duration,regret_key.keys,regret_key.rt,regret_key.duration,trials.thisRepN,trials.thisTrialN,trials.thisN,trials.thisIndex,thisRow.t,notes,begin_exp.started,begin.started,advance_key.started,begin_exp.stopped,advance_key.keys,advance_key.rt,advance_key.duration,Fixation.started,fixcross.started,etRecord.started,Fixation.stopped,trial_num,participant_cond,prob_left,prob_up,prob_right,Choice.started,tree1_img.started,tree2_img.started,tree3_img.started,key_resp_1.started,Choice.stopped,trials.key_resp_1.keys,trials.key_resp_1.rt,trials.key_resp_1.duration,choice_key,choice_rt,choice_prob,points,Feedback.started,appleImage.started,tree1.started,tree2.started,tree3.started,Feedback.stopped,RegretRating.started,regret_scale.started,regret_key.started,rtree1.started,rtree2.started,rtree3.started,RegretRating.stopped,trials.regret_key.keys,trials.regret_key.rt,trials.regret_key.duration,regret_rating,regret_rt,ITI.started,blank_screen.started,blank_screen.stopped,ITI.stopped,fixcross.stopped,avg_regret,EndScreen.started,end_display.started,participant,session,date,expName,psychopyVersion,frameRate,participant_cond,prob_left,prob_up,prob_right,expStart,
,,,,,,,,,,,,,,,0.037601833000735496,0.05495095800142735,0.05495095800142735,2.0369136660010554,space,1.914402999998856,None,,,,,,1,0.2,0.5,0.7,,,,,,,,,,,,,,,,,,,,,,,,,,,,,,,,,,,,,,,,734722,001,2025-08-07_10h53.41.207,regret_experiment,2024.2.4,119.94572551783905,1,0.2,0.5,0.7,2025-08-07 10h53.51.244946 -0700,
0,0,0,left,0.8438512079992506,None,1,5.9572112080004445,None,0,0,0,0,2.597787958000481,,,,,,,,,2.0384838330010098,2.597787958000481,0.001560541000799276,3.0373358329998155,1,1,0.2,0.5,0.7,3.037682083000618,3.049083125000834,3.049083125000834,3.049083125000834,3.049083125000834,3.8996611250004207,left,0.8438512079992506,None,left,0.8438512079992506,0.2,0,3.916622708000432,4.062811750000037,4.062811750000037,4.062811750000037,4.062811750000037,5.902998333000141,5.910912166000344,5.919865290999951,5.919865290999951,5.919865290999951,5.919865290999951,5.919865290999951,11.88513495799998,1,5.9572112080004445,None,1,5.9572112080004445,11.885722832999818,11.895632375000787,12.887907083000755,12.881742041001417,,,,,734722,001,2025-08-07_10h53.41.207,regret_experiment,2024.2.4,119.94572551783905,1,0.2,0.5,0.7,2025-08-07 10h53.51.244946 -0700,
1,0,1,left,0.7944449589995202,None,2,1.002770540999336,None,1,0,1,0,12.887907083000755,,,,,,,,,12.882303750000574,12.887907083000755,0.0024882500001695007,13.871521625000241,2,1,0.2,0.5,0.7,13.871785875000569,13.882660166000278,13.882660166000278,13.882660166000278,13.882660166000278,14.682837083000777,left,0.7944449589995202,None,left,0.7944449589995202,0.2,0,14.697810000001482,14.707318958000542,14.707318958000542,14.707318958000542,14.707318958000542,16.682952208000643,16.691106457999922,16.698620916000436,16.698620916000436,16.698620916000436,16.698620916000436,16.698620916000436,17.706536208001125,2,1.002770540999336,None,2,1.002770540999336,17.706643583000186,17.71534120800061,18.705979000000298,18.70008025000061,13.882660166000278,,,,734722,001,2025-08-07_10h53.41.207,regret_experiment,2024.2.4,119.94572551783905,1,0.2,0.5,0.7,2025-08-07 10h53.51.244946 -0700,
2,0,2,up,0.29092208399924857,None,1,0.6355881660001614,None,2,0,2,0,18.705979000000298,,,,,,,,,18.700868666001043,18.705979000000298,-0.0005150409997440875,19.689944749999995,3,1,0.2,0.5,0.7,19.690303791001497,19.698171250000087,19.698171250000087,19.698171250000087,19.698171250000087,19.991419375000987,up,0.29092208399924857,None,up,0.29092208399924857,0.5,0,20.00607091600068,20.0171057080006,20.0171057080006,20.0171057080006,20.0171057080006,21.998731375000716,22.00668604100065,22.012846499999796,22.012846499999796,22.012846499999796,22.012846499999796,22.012846499999796,22.651435540999955,1,0.6355881660001614,None,1,0.6355881660001614,22.65154204100145,22.657980166000925,23.65398604100119,23.649128708000717,19.698171250000087,,,,734722,001,2025-08-07_10h53.41.207,regret_experiment,2024.2.4,119.94572551783905,1,0.2,0.5,0.7,2025-08-07 10h53.51.244946 -0700,
3,0,3,right,0.2857465000015509,None,1,0.3158551670003362,None,3,0,3,0,23.65398604100119,,,,,,,,,23.649448875001326,23.65398604100119,0.002554000000600354,24.637590166001246,4,1,0.2,0.5,0.7,24.638132041000063,24.647756708000088,24.647756708000088,24.647756708000088,24.647756708000088,24.93886879100137,right,0.2857465000015509,None,right,0.2857465000015509,0.7,0,24.95461220800098,24.961936833000436,24.961936833000436,24.961936833000436,24.961936833000436,26.948475332999806,26.955377666001368,26.961599041000227,26.961599041000227,26.961599041000227,26.961599041000227,26.961599041000227,27.283230500001082,1,0.3158551670003362,None,1,0.3158551670003362,27.283337041000777,27.2909830410008,28.288613333001194,28.282827375000124,24.647756708000088,,,,734722,001,2025-08-07_10h53.41.207,regret_experiment,2024.2.4,119.94572551783905,1,0.2,0.5,0.7,2025-08-07 10h53.51.244946 -0700,
4,0,4,up,0.5242187080002623,None,None,,,4,0,4,0,28.288613333001194,,,,,,,,,28.283269000001383,28.288613333001194,-8.999999408842996e-06,29.27147691600112,5,1,0.2,0.5,0.7,29.271707416000936,29.28142841600129,29.28142841600129,29.28142841600129,29.28142841600129,29.81613225000001,up,0.5242187080002623,None,up,0.5242187080002623,0.5,1,29.828741500001343,29.83627420800076,29.83627420800076,29.83627420800076,29.83627420800076,31.822210207999888,31.822739332999845,,,,,,31.8227777910015,None,,,NA,NA,31.822854707999795,31.8322435830014,32.822088041000825,32.81617762499991,29.28142841600129,,,,734722,001,2025-08-07_10h53.41.207,regret_experiment,2024.2.4,119.94572551783905,1,0.2,0.5,0.7,2025-08-07 10h53.51.244946 -0700,
5,0,5,up,0.37621199999921373,None,2,1.161594375000277,None,5,0,5,0,32.822088041000825,,,,,,,,,32.81660287500017,32.822088041000825,-0.0006515000004583271,33.816585416001544,6,1,0.2,0.5,0.7,33.81700508300128,33.82390937499986,33.82390937499986,33.82390937499986,33.82390937499986,34.20573454100122,up,0.37621199999921373,None,up,0.37621199999921373,0.5,0,34.219320166001125,34.25949487500111,34.25949487500111,34.25949487500111,34.25949487500111,36.213980416001505,36.22095824999997,36.22808029100088,36.22808029100088,36.22808029100088,36.22808029100088,36.22808029100088,37.399908666000556,2,1.161594375000277,None,2,1.161594375000277,37.39999395800078,37.406983541000955,38.404425374999846,38.39881187500032,33.82390937499986,,,,734722,001,2025-08-07_10h53.41.207,regret_experiment,2024.2.4,119.94572551783905,1,0.2,0.5,0.7,2025-08-07 10h53.51.244946 -0700,
6,0,6,right,0.4245997500001977,None,2,1.5851413330001378,None,6,0,6,0,38.404425374999846,,,,,,,,,38.39917595800034,38.404425374999846,-0.0007659999992029043,39.397950166001465,7,1,0.2,0.5,0.7,39.39827679100017,39.404032250000455,39.404032250000455,39.404032250000455,39.404032250000455,39.8328547910005,right,0.4245997500001977,None,right,0.4245997500001977,0.7,0,39.84599516600065,39.85324341600062,39.85324341600062,39.85324341600062,39.85324341600062,41.83924966599989,41.849625750000996,41.859175000001414,41.859175000001414,41.859175000001414,41.859175000001414,41.859175000001414,43.450338708000345,2,1.5851413330001378,None,2,1.5851413330001378,43.450423875001434,43.45768408300137,44.453258875000756,44.448354291000214,39.404032250000455,,,,734722,001,2025-08-07_10h53.41.207,regret_experiment,2024.2.4,119.94572551783905,1,0.2,0.5,0.7,2025-08-07 10h53.51.244946 -0700,
7,0,7,up,0.3010864589996345,None,2,0.9548017920005805,None,7,0,7,0,44.453258875000756,,,,,,,,,44.44872750000104,44.453258875000756,0.002958834000310162,45.4376217500012,8,1,0.2,0.5,0.7,45.437820250001096,45.44827504100067,45.44827504100067,45.44827504100067,45.44827504100067,45.75531433300057,up,0.3010864589996345,None,up,0.3010864589996345,0.5,0,45.768536833000326,45.775888125001075,45.775888125001075,45.775888125001075,45.775888125001075,47.76447270800054,47.77237270800106,47.778279750000365,47.778279750000365,47.778279750000365,47.778279750000365,47.778279750000365,48.739381791001506,2,0.9548017920005805,None,2,0.9548017920005805,48.739480500000354,48.74819466600093,49.73672729100144,49.73185425000156,45.44827504100067,,,,734722,001,2025-08-07_10h53.41.207,regret_experiment,2024.2.4,119.94572551783905,1,0.2,0.5,0.7,2025-08-07 10h53.51.244946 -0700,
8,0,8,right,0.46268791599868564,None,2,0.9181371670001681,None,8,0,8,0,49.73672729100144,,,,,,,,,49.7321761660005,49.73672729100144,0.008329333000801853,50.720971541000836,9,1,0.2,0.5,0.7,50.72118216600029,50.737752458000614,50.737752458000614,50.737752458000614,50.737752458000614,51.20538954100084,right,0.46268791599868564,None,right,0.46268791599868564,0.7,0,51.21821799999998,51.22553933300151,51.22553933300151,51.22553933300151,51.22553933300151,53.215046208000786,53.22317070800091,53.23197558300126,53.23197558300126,53.23197558300126,53.23197558300126,53.23197558300126,54.1561892080008,2,0.9181371670001681,None,2,0.9181371670001681,54.156272125001124,54.16437512500124,55.153983625001274,55.14850820799984,50.73211308300051,,,,734722,001,2025-08-07_10h53.41.207,regret_experiment,2024.2.4,119.94572551783905,1,0.2,0.5,0.7,2025-08-07 10h53.51.244946 -0700,
9,0,9,up,0.49688700000115205,None,3,0.8225719170004595,None,9,0,9,0,55.153983625001274,,,,,,,,,55.148842541000704,55.153983625001274,0.008612583000285667,56.1491175830015,10,1,0.2,0.5,0.7,56.149750041000516,56.155410166000365,56.155410166000365,56.155410166000365,56.155410166000365,56.6558750410004,up,0.49688700000115205,None,up,0.49688700000115205,0.5,0,56.66937537500053,56.67653033300121,56.67653033300121,56.67653033300121,56.67653033300121,58.664705291001155,58.67143833299997,58.67781129100149,58.67781129100149,58.67781129100149,58.67781129100149,58.67781129100149,59.504660624999815,3,0.8225719170004595,None,3,0.8225719170004595,59.5047859160004,59.51367441600087,60.50357170800089,60.498103791000176,56.155410166000365,,,,734722,001,2025-08-07_10h53.41.207,regret_experiment,2024.2.4,119.94572551783905,1,0.2,0.5,0.7,2025-08-07 10h53.51.244946 -0700,
10,0,10,right,1.261500333001095,None,None,,,10,0,10,0,60.50357170800089,,,,,,,,,60.498659958000644,60.50357170800089,0.009389167000335874,61.487034416000824,11,1,0.2,0.5,0.7,61.48741541600066,61.50443829100004,61.50443829100004,61.50443829100004,61.50443829100004,62.77164750000156,right,1.261500333001095,None,right,1.261500333001095,0.7,1,62.78507462500056,62.79168720800044,62.79168720800044,62.79168720800044,62.79168720800044,64.78114458300115,64.78150716600067,,,,,,64.7815362500005,None,,,NA,NA,64.78160587500133,64.78610783300064,65.78160370800106,65.77114691600036,61.498117166000156,,,,734722,001,2025-08-07_10h53.41.207,regret_experiment,2024.2.4,119.94572551783905,1,0.2,0.5,0.7,2025-08-07 10h53.51.244946 -0700,
11,0,11,right,0.32096241600083886,None,None,,,11,0,11,0,65.78160370800106,,,,,,,,,65.77148729100008,65.78160370800106,8.199999865610152e-05,66.76518945800126,12,1,0.2,0.5,0.7,66.76544191600078,66.7719343330009,66.7719343330009,66.7719343330009,66.7719343330009,67.10093041600157,right,0.32096241600083886,None,right,0.32096241600083886,0.7,1,67.11468362500091,67.12633675000143,67.12633675000143,67.12633675000143,67.12633675000143,69.10234375000073,69.10286175000147,,,,,,69.10291325000071,None,,,NA,NA,69.10297004099994,69.11381204100144,70.10312820800027,70.09806537500117,66.7719343330009,,,,734722,001,2025-08-07_10h53.41.207,regret_experiment,2024.2.4,119.94572551783905,1,0.2,0.5,0.7,2025-08-07 10h53.51.244946 -0700,
12,0,12,right,0.2526377499998489,None,None,,,12,0,12,0,70.10312820800027,,,,,,,,,70.09846195800128,70.10312820800027,0.0002660830014065141,71.08745333300067,13,1,0.2,0.5,0.7,71.08779825000056,71.09775004100084,71.09775004100084,71.09775004100084,71.09775004100084,71.35406312499981,right,0.2526377499998489,None,right,0.2526377499998489,0.7,1,71.36559025000133,71.37265325000044,71.37265325000044,71.37265325000044,71.37265325000044,73.36442216600153,73.36474358300075,,,,,,73.36477629100045,None,,,NA,NA,73.3648346250011,73.36953937500039,74.36378491600044,74.35309854099978,71.09775004100084,,,,734722,001,2025-08-07_10h53.41.207,regret_experiment,2024.2.4,119.94572551783905,1,0.2,0.5,0.7,2025-08-07 10h53.51.244946 -0700,
13,0,13,right,0.5143104999988282,None,None,,,13,0,13,0,74.36378491600044,,,,,,,,,74.35348158300076,74.36378491600044,-0.0009886249990813667,75.34833437500129,14,1,0.2,0.5,0.7,75.34855700000116,75.35371275000034,75.35371275000034,75.35371275000034,75.35371275000034,75.87338579100106,right,0.5143104999988282,None,right,0.5143104999988282,0.7,1,75.88594629100044,75.89297062500009,75.89297062500009,75.89297062500009,75.89297062500009,77.88070345800043,77.88117358300042,,,,,,77.88122220800142,None,,,NA,NA,77.88130920799995,77.88575970800048,78.88134570800139,78.87016104100076,75.35371275000034,,,,734722,001,2025-08-07_10h53.41.207,regret_experiment,2024.2.4,119.94572551783905,1,0.2,0.5,0.7,2025-08-07 10h53.51.244946 -0700,
14,0,14,right,0.31774166700051865,None,2,1.7443598749996454,None,14,0,14,0,78.88134570800139,,,,,,,,,78.87044849999984,78.88134570800139,0.00019870800133503508,79.86898983300125,15,1,0.2,0.5,0.7,79.86920191600075,79.88128833300107,79.88128833300107,79.88128833300107,79.88128833300107,80.20431237500088,right,0.31774166700051865,None,right,0.31774166700051865,0.7,0,80.22002170800079,80.22671475000061,80.22671475000061,80.22671475000061,80.22671475000061,82.21318479100046,82.22010020800008,82.2283077910015,82.2283077910015,82.2283077910015,82.2283077910015,82.2283077910015,83.98241841600066,2,1.7443598749996454,None,2,1.7443598749996454,83.98255633300141,83.99812870800088,84.98766041599993,84.98212804100149,79.88128833300107,,,,734722,001,2025-08-07_10h53.41.207,regret_experiment,2024.2.4,119.94572551783905,1,0.2,0.5,0.7,2025-08-07 10h53.51.244946 -0700,
15,0,15,right,0.562156457999663,None,None,,,15,0,15,0,84.98766041599993,,,,,,,,,84.98294270800034,84.98766041599993,0.0004550419998849975,85.98161604100096,16,1,0.2,0.5,0.7,85.98181558299984,85.98691270800009,85.98691270800009,85.98691270800009,85.98691270800009,86.55487108300076,right,0.562156457999663,None,right,0.562156457999663,0.7,1,86.56714533300146,86.57447329100069,86.57447329100069,86.57447329100069,86.57447329100069,88.56373766600154,88.56422404100158,,,,,,88.56426429100065,None,,,NA,NA,88.5643477499998,88.56908100000146,89.56368212500092,89.55450512500101,85.98691270800009,,,,734722,001,2025-08-07_10h53.41.207,regret_experiment,2024.2.4,119.94572551783905,1,0.2,0.5,0.7,2025-08-07 10h53.51.244946 -0700,
16,0,16,right,0.28929387499920267,None,2,2.6469624590008607,None,16,0,16,0,89.56368212500092,,,,,,,,,89.5548617910008,89.56368212500092,-0.0005842500013386598,90.54867250000098,17,1,0.2,0.5,0.7,90.54890875000092,90.55502045800131,90.55502045800131,90.55502045800131,90.55502045800131,90.84808416600026,right,0.28929387499920267,None,right,0.28929387499920267,0.7,0,90.86133775000053,90.86934708300032,90.86934708300032,90.86934708300032,90.86934708300032,92.85270091600069,92.86033900000075,92.86935133299994,92.86935133299994,92.86935133299994,92.86935133299994,92.86935133299994,95.52179137500025,2,2.6469624590008607,None,2,2.6469624590008607,95.52188812500026,95.5302160830015,96.51934100000108,96.51459554100074,90.55502045800131,,,,734722,001,2025-08-07_10h53.41.207,regret_experiment,2024.2.4,119.94572551783905,1,0.2,0.5,0.7,2025-08-07 10h53.51.244946 -0700,
17,0,17,right,0.6025778750008612,None,None,,,17,0,17,0,96.51934100000108,,,,,,,,,96.51498354100113,96.51934100000108,0.009454167000512825,97.51500754100016,18,1,0.2,0.5,0.7,97.51526220800042,97.5207741660015,97.5207741660015,97.5207741660015,97.5207741660015,98.13213891600026,right,0.6025778750008612,None,right,0.6025778750008612,0.7,1,98.14478637499997,98.1536842910009,98.1536842910009,98.1536842910009,98.1536842910009,100.13752783300151,100.13806162500077,,,,,,100.13809683300133,None,,,NA,NA,100.13814629100125,100.1471968750011,101.13761616600095,101.13220304100105,97.5207741660015,,,,734722,001,2025-08-07_10h53.41.207,regret_experiment,2024.2.4,119.94572551783905,1,0.2,0.5,0.7,2025-08-07 10h53.51.244946 -0700,
18,0,18,up,0.6198137079991284,None,None,,,18,0,18,0,101.13761616600095,,,,,,,,,101.1331043750015,101.13761616600095,-0.00043362500036892015,102.13071629099977,19,1,0.2,0.5,0.7,102.13101079100124,102.13606279099986,102.13606279099986,102.13606279099986,102.13606279099986,102.76426991600056,up,0.6198137079991284,None,up,0.6198137079991284,0.5,1,102.77604750000137,102.78421762500147,102.78421762500147,102.78421762500147,102.78421762500147,104.76985450000029,104.77012895799999,,,,,,104.77016366600037,None,,,NA,NA,104.77025058300023,104.78007708299992,105.77114295800129,105.76537841600111,102.13606279099986,,,,734722,001,2025-08-07_10h53.41.207,regret_experiment,2024.2.4,119.94572551783905,1,0.2,0.5,0.7,2025-08-07 10h53.51.244946 -0700,
19,0,19,up,0.3044857079985377,None,None,,,19,0,19,0,105.77114295800129,,,,,,,,,105.76611341600074,105.77114295800129,0.0010222500004601898,106.76503191600023,20,1,0.2,0.5,0.7,106.76571433299978,106.7714750410014,106.7714750410014,106.7714750410014,106.7714750410014,107.08218695800133,up,0.3044857079985377,None,up,0.3044857079985377,0.5,1,107.0940861250001,107.10295116599991,107.10295116599991,107.10295116599991,107.10295116599991,109.0867649160009,109.09111716600091,,,,,,109.09117462500035,None,,,NA,NA,109.09124566600076,109.09645975000058,110.08620829100073,110.08071916600056,106.7714750410014,,,,734722,001,2025-08-07_10h53.41.207,regret_experiment,2024.2.4,119.94572551783905,1,0.2,0.5,0.7,2025-08-07 10h53.51.244946 -0700,
20,0,20,up,0.37419266600045376,None,1,0.9300150839990238,None,20,0,20,0,110.08620829100073,,,,,,,,,110.0810225410005,110.08620829100073,0.005644708000545506,111.08014308300153,21,1,0.2,0.5,0.7,111.08042304100127,111.08548062500086,111.08548062500086,111.08548062500086,111.08548062500086,111.46386216600149,up,0.37419266600045376,None,up,0.37419266600045376,0.5,0,111.47791383300137,111.48478491600144,111.48478491600144,111.48478491600144,111.48478491600144,113.48116166600084,113.48830816600093,113.49784062500112,113.49784062500112,113.49784062500112,113.49784062500112,113.49784062500112,114.43098812500102,1,0.9300150839990238,None,1,0.9300150839990238,114.43106479100061,114.43560579100085,115.43008054100028,115.41987383300147,111.08548062500086,,,,734722,001,2025-08-07_10h53.41.207,regret_experiment,2024.2.4,119.94572551783905,1,0.2,0.5,0.7,2025-08-07 10h53.51.244946 -0700,
21,0,21,up,0.29464083300081256,None,None,,,21,0,21,0,115.43008054100028,,,,,,,,,115.42089179100003,115.43008054100028,-0.0008990829992399085,116.41302154100049,22,1,0.2,0.5,0.7,116.4133242500011,116.42924875000062,116.42924875000062,116.42924875000062,116.42924875000062,116.73154908300057,up,0.29464083300081256,None,up,0.29464083300081256,0.5,1,116.74468812499981,116.75397795800018,116.75397795800018,116.75397795800018,116.75397795800018,118.7374267080013,118.7380434580009,,,,,,118.73808591600027,None,,,NA,NA,118.73816229100157,118.74722554100117,119.7379701660011,119.73223595800118,116.41834712499985,,,,734722,001,2025-08-07_10h53.41.207,regret_experiment,2024.2.4,119.94572551783905,1,0.2,0.5,0.7,2025-08-07 10h53.51.244946 -0700,
22,0,22,up,0.29799741599890694,None,2,1.2371036659988022,None,22,0,22,0,119.7379701660011,,,,,,,,,119.73262962500121,119.7379701660011,-5.029199928685557e-05,120.73113954100154,23,1,0.2,0.5,0.7,120.73141391600075,120.73776966600053,120.73776966600053,120.73776966600053,120.73776966600053,121.03822312500051,up,0.29799741599890694,None,up,0.29799741599890694,0.5,0,121.05412125000112,121.06136295800025,121.06136295800025,121.06136295800025,121.06136295800025,123.04793966600118,123.05577679100134,123.0632512910015,123.0632512910015,123.0632512910015,123.0632512910015,123.0632512910015,124.30497662500056,2,1.2371036659988022,None,2,1.2371036659988022,124.30506962500112,124.31321745800051,125.3031189580015,125.2977563330005,120.73776966600053,,,,734722,001,2025-08-07_10h53.41.207,regret_experiment,2024.2.4,119.94572551783905,1,0.2,0.5,0.7,2025-08-07 10h53.51.244946 -0700,
23,0,23,right,0.777640166999845,None,None,,,23,0,23,0,125.3031189580015,,,,,,,,,125.29817970800104,125.3031189580015,0.009037208999870927,126.28864033300124,24,1,0.2,0.5,0.7,126.28892466600155,126.29755674999979,126.29755674999979,126.29755674999979,126.29755674999979,127.08243450000009,right,0.777640166999845,None,right,0.777640166999845,0.7,1,127.09603650000099,127.10503991600126,127.10503991600126,127.10503991600126,127.10503991600126,129.08808937499998,129.0888582910011,,,,,,129.08890675000112,None,,,NA,NA,129.08896025000104,129.0971356250011,130.0892664160001,130.08200775000114,126.29755674999979,,,,734722,001,2025-08-07_10h53.41.207,regret_experiment,2024.2.4,119.94572551783905,1,0.2,0.5,0.7,2025-08-07 10h53.51.244946 -0700,
24,0,24,right,0.28601295900080004,None,None,,,24,0,24,0,130.0892664160001,,,,,,,,,130.08297612500064,130.0892664160001,0.00045133300045563374,131.07283966600153,25,1,0.2,0.5,0.7,131.07312408300095,131.08044654100013,131.08044654100013,131.08044654100013,131.08044654100013,131.38336833300127,right,0.28601295900080004,None,right,0.28601295900080004,0.7,1,131.4023020830009,131.40941487500095,131.40941487500095,131.40941487500095,131.40941487500095,133.38903562500127,133.389632583001,,,,,,133.38966504100063,None,,,NA,NA,133.38977508300013,133.39771141600067,134.38656175000142,134.38126212499992,131.08044654100013,,,,734722,001,2025-08-07_10h53.41.207,regret_experiment,2024.2.4,119.94572551783905,1,0.2,0.5,0.7,2025-08-07 10h53.51.244946 -0700,
25,0,25,right,0.2880850410001585,None,None,,,25,0,25,0,134.38656175000142,,,,,,,,,134.381681750001,134.38656175000142,0.008011125000848551,135.37028558300153,26,1,0.2,0.5,0.7,135.3705497080009,135.38704104099997,135.38704104099997,135.38704104099997,135.38704104099997,135.68232933299987,right,0.2880850410001585,None,right,0.2880850410001585,0.7,1,135.69671054100036,135.70569979100037,135.70569979100037,135.70569979100037,135.70569979100037,137.68855508300112,137.68919587500022,,,,,,137.6892350830003,None,,,NA,NA,137.68931275000068,137.69727262500055,138.6882168330012,138.68181779100087,135.38056791600138,,,,734722,001,2025-08-07_10h53.41.207,regret_experiment,2024.2.4,119.94572551783905,1,0.2,0.5,0.7,2025-08-07 10h53.51.244946 -0700,
26,0,26,right,0.2813203749992681,None,None,,,26,0,26,0,138.6882168330012,,,,,,,,,138.68254508300015,138.6882168330012,-0.0009594999992259545,139.6795385410005,27,1,0.2,0.5,0.7,139.67983629100127,139.68497241600016,139.68497241600016,139.68497241600016,139.68497241600016,139.9710634160001,right,0.2813203749992681,None,right,0.2813203749992681,0.7,1,139.9850734160009,139.99259037500087,139.99259037500087,139.99259037500087,139.99259037500087,141.98090437500105,141.9813042500009,,,,,,141.98133970800154,None,,,NA,NA,141.9813922909998,141.9864634580008,142.98044162500082,142.96925525000006,139.68497241600016,,,,734722,001,2025-08-07_10h53.41.207,regret_experiment,2024.2.4,119.94572551783905,1,0.2,0.5,0.7,2025-08-07 10h53.51.244946 -0700,
27,0,27,right,0.24081870900045033,None,1,1.4337138339997182,None,27,0,27,0,142.98044162500082,,,,,,,,,142.96954441600064,142.98044162500082,-0.0008718339995539282,143.96469200000138,28,1,0.2,0.5,0.7,143.96498179100126,143.9709440000006,143.9709440000006,143.9709440000006,143.9709440000006,144.21511770800134,right,0.24081870900045033,None,right,0.24081870900045033,0.7,0,144.23030058299992,144.2375791250015,144.2375791250015,144.2375791250015,144.2375791250015,146.2195810000012,146.22837150000123,146.2359591250006,146.2359591250006,146.2359591250006,146.2359591250006,146.2359591250006,147.67229504100032,1,1.4337138339997182,None,1,1.4337138339997182,147.6723686660007,147.69387375000042,,148.67938879100075,143.9709440000006,,,,734722,001,2025-08-07_10h53.41.207,regret_experiment,2024.2.4,119.94572551783905,1,0.2,0.5,0.7,2025-08-07 10h53.51.244946 -0700,
28,0,28,up,0.3341449580002518,None,3,1.721305332999691,None,28,0,28,0,148.6858824580013,,,,,,,,,148.68010841600153,148.6858824580013,0.007786500000293017,149.67895758300074,29,1,0.2,0.5,0.7,149.67955458300094,149.68500287500137,149.68500287500137,149.68500287500137,149.68500287500137,150.02074066600107,up,0.3341449580002518,None,up,0.3341449580002518,0.5,0,150.03314183300063,150.0410797910008,150.0410797910008,150.0410797910008,150.0410797910008,152.03082037500099,152.0374634159998,152.04372954100108,152.04372954100108,152.04372954100108,152.04372954100108,152.04372954100108,153.77167100000042,3,1.721305332999691,None,3,1.721305332999691,153.77175929100122,153.7803922080002,154.76968391599985,154.76380533300107,,,,,734722,001,2025-08-07_10h53.41.207,regret_experiment,2024.2.4,119.94572551783905,1,0.2,0.5,0.7,2025-08-07 10h53.51.244946 -0700,
29,0,29,right,0.3787167500013311,None,None,,,29,0,29,0,154.76968391599985,,,,,,,,,154.76423079100095,154.76968391599985,0.008714292000149726,155.75280454099993,30,1,0.2,0.5,0.7,155.7530796660012,155.7692960000004,155.7692960000004,155.7692960000004,155.7692960000004,156.1499007500006,right,0.3787167500013311,None,right,0.3787167500013311,0.7,1,156.16227645800063,156.16955899999994,156.16955899999994,156.16955899999994,156.16955899999994,158.1530442910007,158.1536235830008,,,,,,158.15365420800117,None,,,NA,NA,158.15370970799995,158.16373691599983,159.15442600000097,159.14775154100062,155.76379283300048,,,,734722,001,2025-08-07_10h53.41.207,regret_experiment,2024.2.4,119.94572551783905,1,0.2,0.5,0.7,2025-08-07 10h53.51.244946 -0700,
30,0,30,right,0.32229787500000384,None,None,,,30,0,30,0,159.15442600000097,,,,,,,,,159.1483988330001,159.15442600000097,0.0008347499988303753,160.14768962500057,31,1,0.2,0.5,0.7,160.1480203330011,160.15308670800005,160.15308670800005,160.15308670800005,160.15308670800005,160.48149537500103,right,0.32229787500000384,None,right,0.32229787500000384,0.7,1,160.49369529100113,160.50095791600143,160.50095791600143,160.50095791600143,160.50095791600143,162.48503954100124,162.4853980000007,,,,,,162.48543458300082,None,,,NA,NA,162.48550087500007,162.49593749999985,163.48378712500016,163.47891304100085,160.15308670800005,,,,734722,001,2025-08-07_10h53.41.207,regret_experiment,2024.2.4,119.94572551783905,1,0.2,0.5,0.7,2025-08-07 10h53.51.244946 -0700,
31,0,31,right,0.2916012080004293,None,None,,,31,0,31,0,163.48378712500016,,,,,,,,,163.47928916599994,163.48378712500016,0.009757249999893247,164.46865170800083,32,1,0.2,0.5,0.7,164.46886212500067,164.47963037500085,164.47963037500085,164.47963037500085,164.47963037500085,164.781682791001,right,0.2916012080004293,None,right,0.2916012080004293,0.7,0,164.79454975000044,164.80153262500062,164.80153262500062,164.80153262500062,164.80153262500062,166.7857182910011,166.78612266600067,,,,,,166.78617195800143,None,,,NA,NA,166.7862463750007,166.79669308300072,167.79534058300123,167.7854801250014,164.47963037500085,,,,734722,001,2025-08-07_10h53.41.207,regret_experiment,2024.2.4,119.94572551783905,1,0.2,0.5,0.7,2025-08-07 10h53.51.244946 -0700,
32,0,32,right,0.38051766699936707,None,None,,,32,0,32,0,167.79534058300123,,,,,,,,,167.78583345800143,167.79534058300123,-0.00036516600084723905,168.78020670800106,33,1,0.2,0.5,0.7,168.7805042910004,168.78590525000072,168.78590525000072,168.78590525000072,168.78590525000072,169.16978291600026,right,0.38051766699936707,None,right,0.38051766699936707,0.7,1,169.18224787500003,169.18874554100148,169.18874554100148,169.18874554100148,169.18874554100148,171.17856808299985,171.17894658300065,,,,,,171.17900245800047,None,,,NA,NA,171.17909020800107,171.18396512500112,172.1802653750001,172.1708122910004,168.78590525000072,,,,734722,001,2025-08-07_10h53.41.207,regret_experiment,2024.2.4,119.94572551783905,1,0.2,0.5,0.7,2025-08-07 10h53.51.244946 -0700,
33,0,33,right,0.2340355840005941,None,None,,,33,0,33,0,172.1802653750001,,,,,,,,,172.17123495800115,172.1802653750001,0.0013559159997384995,173.163444875001,34,1,0.2,0.5,0.7,173.1637342080012,173.16867254099998,173.16867254099998,173.16867254099998,173.16867254099998,173.41385666600036,right,0.2340355840005941,None,right,0.2340355840005941,0.7,1,173.425657916001,173.43297366600018,173.43297366600018,173.43297366600018,173.43297366600018,175.4182460410011,175.41870525000013,,,,,,175.41875062500003,None,,,NA,NA,175.4188290410002,175.42992983300064,176.41790870800105,176.41279129100076,173.16867254099998,,,,734722,001,2025-08-07_10h53.41.207,regret_experiment,2024.2.4,119.94572551783905,1,0.2,0.5,0.7,2025-08-07 10h53.51.244946 -0700,
34,0,34,right,0.2459107499998936,None,None,,,34,0,34,0,176.41790870800105,,,,,,,,,176.4132120000013,176.41790870800105,-0.0008035419996303972,177.40265004100002,35,1,0.2,0.5,0.7,177.40289545800078,177.41321195800083,177.41321195800083,177.41321195800083,177.41321195800083,177.66421666600036,right,0.2459107499998936,None,right,0.2459107499998936,0.7,1,177.67564770799981,177.68296533300054,177.68296533300054,177.68296533300054,177.68296533300054,179.66979370800073,179.6701324580008,,,,,,179.67017162500088,None,,,NA,NA,179.67022474999976,179.67991454100047,180.66806966600052,180.66292008300115,177.41321195800083,,,,734722,001,2025-08-07_10h53.41.207,regret_experiment,2024.2.4,119.94572551783905,1,0.2,0.5,0.7,2025-08-07 10h53.51.244946 -0700,
35,0,35,right,0.2813861669983453,None,None,,,35,0,35,0,180.66806966600052,,,,,,,,,180.66334745800123,180.66806966600052,0.008882916001311969,181.65102854100041,36,1,0.2,0.5,0.7,181.6512677080009,181.6688167500015,181.6688167500015,181.6688167500015,181.6688167500015,181.9533198750014,right,0.2813861669983453,None,right,0.2813861669983453,0.7,1,181.9648908750005,181.9716040000003,181.9716040000003,181.9716040000003,181.9716040000003,183.9629132910013,183.96333466600117,,,,,,183.9633667500002,None,,,NA,NA,183.96341466600097,183.96767954100142,184.96341408300032,184.95172387500133,181.66203445800056,,,,734722,001,2025-08-07_10h53.41.207,regret_experiment,2024.2.4,119.94572551783905,1,0.2,0.5,0.7,2025-08-07 10h53.51.244946 -0700,
36,0,36,right,0.3963519160006399,None,None,,,36,0,36,0,184.96341408300032,,,,,,,,,184.95197833300153,184.96341408300032,8.037500083446503e-05,185.9469880000015,37,1,0.2,0.5,0.7,185.94717750000018,185.95199195799978,185.95199195799978,185.95199195799978,185.95199195799978,186.3547909580011,right,0.3963519160006399,None,right,0.3963519160006399,0.7,1,186.36802154100042,186.3746877499998,186.3746877499998,186.3746877499998,186.3746877499998,188.36336287500126,188.364324958,,,,,,188.36444525000115,None,,,NA,NA,188.36456945800091,188.37029425000037,189.36845754100068,189.36343900000065,185.95199195799978,,,,734722,001,2025-08-07_10h53.41.207,regret_experiment,2024.2.4,119.94572551783905,1,0.2,0.5,0.7,2025-08-07 10h53.51.244946 -0700,
37,0,37,right,0.5266832080014865,None,None,,,37,0,37,0,189.36845754100068,,,,,,,,,189.3637925410003,189.36845754100068,-0.0007154579998314148,190.35180608300107,38,1,0.2,0.5,0.7,190.35212733300068,190.3636292500014,190.3636292500014,190.3636292500014,190.3636292500014,190.8965336250003,right,0.5266832080014865,None,right,0.5266832080014865,0.7,0,190.91050504099985,190.917368583001,190.917368583001,190.917368583001,190.917368583001,192.90234987500116,192.90262150000126,,,,,,192.90265675000046,None,,,NA,NA,192.90270645800047,192.91282995800066,193.91138512500038,193.90125004100082,190.3636292500014,,,,734722,001,2025-08-07_10h53.41.207,regret_experiment,2024.2.4,119.94572551783905,1,0.2,0.5,0.7,2025-08-07 10h53.51.244946 -0700,
38,0,38,right,0.37270695799998066,None,None,,,38,0,38,0,193.91138512500038,,,,,,,,,193.90160712500074,193.91138512500038,0.008780500000284519,194.89662500000122,39,1,0.2,0.5,0.7,194.89699166600076,194.90199629100061,194.90199629100061,194.90199629100061,194.90199629100061,195.2822421660003,right,0.37270695799998066,None,right,0.37270695799998066,0.7,1,195.29429941600029,195.30091012500088,195.30091012500088,195.30091012500088,195.30091012500088,197.28364775000045,197.284250875,,,,,,197.28429437500017,None,,,NA,NA,197.28435854100098,197.2949329160001,198.2848683330012,198.27955962499982,194.90199629100061,,,,734722,001,2025-08-07_10h53.41.207,regret_experiment,2024.2.4,119.94572551783905,1,0.2,0.5,0.7,2025-08-07 10h53.51.244946 -0700,
39,0,39,right,0.22779116700075974,None,None,,,39,0,39,0,198.2848683330012,,,,,,,,,198.2801059580015,198.2848683330012,0.000615167000432848,199.2691770830006,40,1,0.2,0.5,0.7,199.26938620800138,199.27877016599996,199.27877016599996,199.27877016599996,199.27877016599996,199.5136861660012,right,0.22779116700075974,None,right,0.22779116700075974,0.7,1,199.52581720800117,199.533262500001,199.533262500001,199.533262500001,199.533262500001,201.51945837499989,201.51991591600017,,,,,,201.5199595410013,None,,,NA,NA,201.5200118749999,201.52874087500095,202.51690733299984,202.5119424580007,199.27877016599996,,,,734722,001,2025-08-07_10h53.41.207,regret_experiment,2024.2.4,119.94572551783905,1,0.2,0.5,0.7,2025-08-07 10h53.51.244946 -0700,
40,0,40,right,0.23653579199890373,None,None,,,40,0,40,0,202.51690733299984,,,,,,,,,202.51244450000013,202.51690733299984,0.008123375000650412,203.50111554100113,41,1,0.2,0.5,0.7,203.5014545410013,203.51771983300023,203.51771983300023,203.51771983300023,203.51771983300023,203.76328066600036,right,0.23653579199890373,None,right,0.23653579199890373,0.7,0,203.77770170800068,203.7844242500014,203.7844242500014,203.7844242500014,203.7844242500014,205.76815595800144,205.7685577500015,,,,,,205.76860116600074,None,,,NA,NA,205.7686805000012,205.77973533300064,206.77825041600045,206.76739337500112,203.5122080000001,,,,734722,001,2025-08-07_10h53.41.207,regret_experiment,2024.2.4,119.94572551783905,1,0.2,0.5,0.7,2025-08-07 10h53.51.244946 -0700,
41,0,41,right,0.48246583299987833,None,None,,,41,0,41,0,206.77825041600045,,,,,,,,,206.76775441600148,206.77825041600045,-0.0008697910016053356,207.76289916600035,42,1,0.2,0.5,0.7,207.76316683300138,207.76821920800103,207.76821920800103,207.76821920800103,207.76821920800103,208.252725458,right,0.48246583299987833,None,right,0.48246583299987833,0.7,0,208.2650186660012,208.2720102910007,208.2720102910007,208.2720102910007,208.2720102910007,210.25303862500004,210.25358358300036,,,,,,210.25362716600102,None,,,NA,NA,210.253679458001,210.26225404100114,211.25356770800136,211.24735908300136,207.76821920800103,,,,734722,001,2025-08-07_10h53.41.207,regret_experiment,2024.2.4,119.94572551783905,1,0.2,0.5,0.7,2025-08-07 10h53.51.244946 -0700,
42,0,42,right,0.2869852080002602,None,None,,,42,0,42,0,211.25356770800136,,,,,,,,,211.24820683300095,211.25356770800136,3.383400144230109e-05,212.2465219580008,43,1,0.2,0.5,0.7,212.24679258300057,212.25193154100089,212.25193154100089,212.25193154100089,212.25193154100089,212.54618941599983,right,0.2869852080002602,None,right,0.2869852080002602,0.7,0,212.56068766600038,212.56799895800032,212.56799895800032,212.56799895800032,212.56799895800032,214.55121175000022,214.5515105000013,,,,,,214.55153845800123,None,,,NA,NA,214.55160312500084,214.56265304100089,215.55074175000118,215.54600016600125,212.25193154100089,,,,734722,001,2025-08-07_10h53.41.207,regret_experiment,2024.2.4,119.94572551783905,1,0.2,0.5,0.7,2025-08-07 10h53.51.244946 -0700,
43,0,43,right,0.2520230000009178,None,None,,,43,0,43,0,215.55074175000118,,,,,,,,,215.54630633300076,215.55074175000118,-0.0007110000005923212,216.53511733300002,44,1,0.2,0.5,0.7,216.53540362500098,216.54661516600027,216.54661516600027,216.54661516600027,216.54661516600027,216.80520487500144,right,0.2520230000009178,None,right,0.2520230000009178,0.7,1,216.82045133300016,216.82893175000027,216.82893175000027,216.82893175000027,216.82893175000027,218.81282108300002,218.81367537500046,,,,,,218.81377687500026,None,,,NA,NA,218.81391508300112,218.81895200000145,219.81118241600052,219.80193908300134,216.54661516600027,,,,734722,001,2025-08-07_10h53.41.207,regret_experiment,2024.2.4,119.94572551783905,1,0.2,0.5,0.7,2025-08-07 10h53.51.244946 -0700,
44,0,44,right,0.3029727080011071,None,None,,,44,0,44,0,219.81118241600052,,,,,,,,,219.80223462499998,219.81118241600052,0.0022544580006069737,220.79701320800086,45,1,0.2,0.5,0.7,220.79742754100153,220.80272658300055,220.80272658300055,220.80272658300055,220.80272658300055,221.11420929100132,right,0.3029727080011071,None,right,0.3029727080011071,0.7,1,221.12621949999993,221.1332364580012,221.1332364580012,221.1332364580012,221.1332364580012,223.11909537500105,223.11969708300057,,,,,,223.11974012500104,None,,,NA,NA,223.11979475000044,223.12912479100123,224.11923458300043,224.11288729100124,220.80272658300055,,,,734722,001,2025-08-07_10h53.41.207,regret_experiment,2024.2.4,119.94572551783905,1,0.2,0.5,0.7,2025-08-07 10h53.51.244946 -0700,
45,0,45,right,0.37248591699972167,None,None,,,45,0,45,0,224.11923458300043,,,,,,,,,224.11379687500084,224.11923458300043,-0.0004676669996115379,225.11238616599985,46,1,0.2,0.5,0.7,225.11269683300088,225.11777416600125,225.11777416600125,225.11777416600125,225.11777416600125,225.49712345800071,right,0.37248591699972167,None,right,0.37248591699972167,0.7,0,225.51037687500138,225.51707620800153,225.51707620800153,225.51707620800153,225.51707620800153,227.5015134160003,227.50207525000042,,,,,,227.50210275000063,None,,,NA,NA,227.50214962500104,227.51101570799983,228.49979975000133,228.49490983299984,225.11777416600125,,,,734722,001,2025-08-07_10h53.41.207,regret_experiment,2024.2.4,119.94572551783905,1,0.2,0.5,0.7,2025-08-07 10h53.51.244946 -0700,
46,0,46,right,0.2690769579985499,None,None,,,46,0,46,0,228.49979975000133,,,,,,,,,228.49529495800016,228.49979975000133,0.009043000000019674,229.48454850000053,47,1,0.2,0.5,0.7,229.48478950000026,229.50016508299996,229.50016508299996,229.50016508299996,229.50016508299996,229.7802490410013,right,0.2690769579985499,None,right,0.2690769579985499,0.7,1,229.79344354100067,229.80227812500016,229.80227812500016,229.80227812500016,229.80227812500016,231.78675250000015,231.7873066660013,,,,,,231.78733662500053,None,,,NA,NA,231.7874062910014,231.7950226660014,232.78376495800148,232.77891683300004,229.49461599999995,,,,734722,001,2025-08-07_10h53.41.207,regret_experiment,2024.2.4,119.94572551783905,1,0.2,0.5,0.7,2025-08-07 10h53.51.244946 -0700,
47,0,47,right,0.2590344999989611,None,None,,,47,0,47,0,232.78376495800148,,,,,,,,,232.77931216600155,232.78376495800148,0.007973375000801752,233.76679837499978,48,1,0.2,0.5,0.7,233.76709995800047,233.78394900000058,233.78394900000058,233.78394900000058,233.78394900000058,234.04800183299994,right,0.2590344999989611,None,right,0.2590344999989611,0.7,1,234.05967379100002,234.068326083001,234.068326083001,234.068326083001,234.068326083001,236.05085320800026,236.0511949160009,,,,,,236.0512312910014,None,,,NA,NA,236.05128175000027,236.06250341600025,237.05066941600126,237.04575145800118,233.77788241600138,,,,734722,001,2025-08-07_10h53.41.207,regret_experiment,2024.2.4,119.94572551783905,1,0.2,0.5,0.7,2025-08-07 10h53.51.244946 -0700,
48,0,48,right,0.21908012499989127,None,None,,,48,0,48,0,237.05066941600126,,,,,,,,,237.04607858300005,237.05066941600126,-0.00043887500032724347,238.0341696659998,49,1,0.2,0.5,0.7,238.03443420800068,238.04616729100053,238.04616729100053,238.04616729100053,238.04616729100053,238.27063204099977,right,0.21908012499989127,None,right,0.21908012499989127,0.7,1,238.28219900000113,238.2886457500008,238.2886457500008,238.2886457500008,238.2886457500008,240.27865554100026,240.27900466600113,,,,,,240.27904554100132,None,,,NA,NA,240.27911808300087,240.28414604099999,241.27915383300024,241.26745575000132,238.04616729100053,,,,734722,001,2025-08-07_10h53.41.207,regret_experiment,2024.2.4,119.94572551783905,1,0.2,0.5,0.7,2025-08-07 10h53.51.244946 -0700,
49,0,49,right,0.2368531249994703,None,None,,,49,0,49,0,241.27915383300024,,,,,,,,,241.26783912500105,241.27915383300024,0.00016241699995589443,242.262927916001,50,1,0.2,0.5,0.7,242.26346595799987,242.26849458300057,242.26849458300057,242.26849458300057,242.26849458300057,242.51354683300087,right,0.2368531249994703,None,right,0.2368531249994703,0.7,1,242.52502350000032,242.53166633300134,242.53166633300134,242.53166633300134,242.53166633300134,244.51740979100032,244.5183312500012,,,,,,244.51842395800122,None,,,NA,NA,244.51854950000052,244.5282917500008,245.5169685410001,245.51198991599995,242.26849458300057,,,,734722,001,2025-08-07_10h53.41.207,regret_experiment,2024.2.4,119.94572551783905,1,0.2,0.5,0.7,2025-08-07 10h53.51.244946 -0700,
50,0,50,right,0.23017574999903445,None,None,,,50,0,50,0,245.5169685410001,,,,,,,,,245.51247287500155,245.5169685410001,0.010532250000323984,246.51235054100107,51,1,0.2,0.5,0.7,246.51261933300157,246.51771325000118,246.51771325000118,246.51771325000118,246.51771325000118,246.7521375410015,right,0.23017574999903445,None,right,0.23017574999903445,0.7,1,246.76395870800116,246.77047975000096,246.77047975000096,246.77047975000096,246.77047975000096,248.76146970800073,248.7624095830015,,,,,,248.7625872080007,None,,,NA,NA,248.76272329099993,248.76733012500154,249.76816800000051,249.76275808300124,246.51771325000118,,,,734722,001,2025-08-07_10h53.41.207,regret_experiment,2024.2.4,119.94572551783905,1,0.2,0.5,0.7,2025-08-07 10h53.51.244946 -0700,
51,0,51,right,0.36722275000101945,None,None,,,51,0,51,0,249.76816800000051,,,,,,,,,249.7631432500002,249.76816800000051,0.00047983299918996636,250.7617234999998,52,1,0.2,0.5,0.7,250.7620133750006,250.76707066600102,250.76707066600102,250.76707066600102,250.76707066600102,251.13730691599994,right,0.36722275000101945,None,right,0.36722275000101945,0.7,1,251.14892837500156,251.15537708300144,251.15537708300144,251.15537708300144,251.15537708300144,253.14477725000143,253.14510408300157,,,,,,253.14514045800024,None,,,NA,NA,253.14518675,253.15057900000102,254.15054304099976,254.14533595800094,250.76707066600102,,,,734722,001,2025-08-07_10h53.41.207,regret_experiment,2024.2.4,119.94572551783905,1,0.2,0.5,0.7,2025-08-07 10h53.51.244946 -0700,
52,0,52,right,0.3199926670004061,None,None,,,52,0,52,0,254.15054304099976,,,,,,,,,254.1458212080015,254.15054304099976,0.0006681250015390106,255.13387529100146,53,1,0.2,0.5,0.7,255.13422654100032,255.14567650000026,255.14567650000026,255.14567650000026,255.14567650000026,255.4683907079998,right,0.3199926670004061,None,right,0.3199926670004061,0.7,0,255.48145908300103,255.48785266600134,255.48785266600134,255.48785266600134,255.48785266600134,257.4796363330006,257.48027533300046,,,,,,257.4803651660004,None,,,NA,NA,257.4804813330011,257.485159666001,258.4786412909998,258.46837808300006,255.14567650000026,,,,734722,001,2025-08-07_10h53.41.207,regret_experiment,2024.2.4,119.94572551783905,1,0.2,0.5,0.7,2025-08-07 10h53.51.244946 -0700,
53,0,53,right,0.3306912080006441,None,None,,,53,0,53,0,258.4786412909998,,,,,,,,,258.4687305000007,258.4786412909998,0.003948125000533764,259.4624592910004,54,1,0.2,0.5,0.7,259.46315445800064,259.4787096250002,259.4787096250002,259.4787096250002,259.4787096250002,259.8131333330002,right,0.3306912080006441,None,right,0.3306912080006441,0.7,1,259.82447358300124,259.8316344579998,259.8316344579998,259.8316344579998,259.8316344579998,261.8173356660009,261.8177893330012,,,,,,261.81785050000144,None,,,NA,NA,261.8179063330008,261.8283157500009,262.8183829999998,262.812990208,259.46819016600057,,,,734722,001,2025-08-07_10h53.41.207,regret_experiment,2024.2.4,119.94572551783905,1,0.2,0.5,0.7,2025-08-07 10h53.51.244946 -0700,
54,0,54,right,0.28855858300084947,None,None,,,54,0,54,0,262.8183829999998,,,,,,,,,262.8139760410013,262.8183829999998,0.0005618750001303852,263.8121217500011,55,1,0.2,0.5,0.7,263.8123725410005,263.8172357910007,263.8172357910007,263.8172357910007,263.8172357910007,264.1127892500008,right,0.28855858300084947,None,right,0.28855858300084947,0.7,1,264.12566408300154,264.13233354100157,264.13233354100157,264.13233354100157,264.13233354100157,266.1167197499999,266.1172342500013,,,,,,266.1172692500004,None,,,NA,NA,266.11732683300033,266.1289080410006,267.11655354100003,267.11171225,263.8172357910007,,,,734722,001,2025-08-07_10h53.41.207,regret_experiment,2024.2.4,119.94572551783905,1,0.2,0.5,0.7,2025-08-07 10h53.51.244946 -0700,
55,0,55,left,0.284353540999291,None,None,,,55,0,55,0,267.11655354100003,,,,,,,,,267.11207629100136,267.11655354100003,-0.0006476670005213236,268.0996632080005,56,1,0.2,0.5,0.7,268.0999288330004,268.11671691599986,268.11671691599986,268.11671691599986,268.11671691599986,268.40366687500136,left,0.284353540999291,None,left,0.284353540999291,0.2,1,268.41515425000034,268.4218903330002,268.4218903330002,268.4218903330002,268.4218903330002,270.4113577500011,270.41177312500076,,,,,,270.41181895800037,None,,,NA,NA,270.411899875,270.4163804580003,271.41215454099984,271.4026632080004,268.11147733300095,,,,734722,001,2025-08-07_10h53.41.207,regret_experiment,2024.2.4,119.94572551783905,1,0.2,0.5,0.7,2025-08-07 10h53.51.244946 -0700,
56,0,56,left,0.2887310410005739,None,None,,,56,0,56,0,271.41215454099984,,,,,,,,,271.40300179100086,271.41215454099984,0.00034058299934258685,272.3955049160013,57,1,0.2,0.5,0.7,272.39581483300026,272.40096712500053,272.40096712500053,272.40096712500053,272.40096712500053,272.6964591249998,left,0.2887310410005739,None,left,0.2887310410005739,0.2,1,272.7079646250004,272.71494737500143,272.71494737500143,272.71494737500143,272.71494737500143,274.7008758330012,274.7013590000006,,,,,,274.7013927500011,None,,,NA,NA,274.7014479999998,274.71176758300135,275.7002948750014,275.69557137500124,272.40096712500053,,,,734722,001,2025-08-07_10h53.41.207,regret_experiment,2024.2.4,119.94572551783905,1,0.2,0.5,0.7,2025-08-07 10h53.51.244946 -0700,
57,0,57,left,0.38800104199981433,None,None,,,57,0,57,0,275.7002948750014,,,,,,,,,275.69589137500043,275.7002948750014,0.010266958001011517,276.6857572080007,58,1,0.2,0.5,0.7,276.6860170830005,276.6938961249998,276.6938961249998,276.6938961249998,276.6938961249998,277.0864371660009,left,0.38800104199981433,None,left,0.38800104199981433,0.2,1,277.0986986250009,277.1052962499998,277.1052962499998,277.1052962499998,277.1052962499998,279.0957976660011,279.0964922910007,,,,,,279.09659075000127,None,,,NA,NA,279.09670625000035,279.1015612500014,280.0945780410002,280.08463620800103,276.6938961249998,,,,734722,001,2025-08-07_10h53.41.207,regret_experiment,2024.2.4,119.94572551783905,1,0.2,0.5,0.7,2025-08-07 10h53.51.244946 -0700,
58,0,58,left,0.26908245799859287,None,None,,,58,0,58,0,280.0945780410002,,,,,,,,,280.0849326660009,280.0945780410002,0.003214667000065674,281.07810150000114,59,1,0.2,0.5,0.7,281.0783711660006,281.0946165410005,281.0946165410005,281.0946165410005,281.0946165410005,281.37056704099996,left,0.26908245799859287,None,left,0.26908245799859287,0.2,0,281.3843902910012,281.39100258300095,281.39100258300095,281.39100258300095,281.39100258300095,283.3781604579999,283.3786921660012,,,,,,283.37873916600074,None,,,NA,NA,283.37880858300014,283.3831547080008,284.3778872080002,284.36688958300147,281.08276741600093,,,,734722,001,2025-08-07_10h53.41.207,regret_experiment,2024.2.4,119.94572551783905,1,0.2,0.5,0.7,2025-08-07 10h53.51.244946 -0700,
59,0,59,left,0.32206904200029385,None,None,,,59,0,59,0,284.3778872080002,,,,,,,,,284.3676338330006,284.3778872080002,-0.0008313750004163012,285.3620568330007,60,1,0.2,0.5,0.7,285.3623346250006,285.3672136660007,285.3672136660007,285.3672136660007,285.3672136660007,285.69975591600087,left,0.32206904200029385,None,left,0.32206904200029385,0.2,0,285.7119212910002,285.71844141600013,285.71844141600013,285.71844141600013,285.71844141600013,287.70066662499994,287.70101729100134,,,,,,287.7010742500006,None,,,NA,NA,287.7011501249999,287.7118559160008,288.7626107080014,288.69640445799996,285.3672136660007,,,,734722,001,2025-08-07_10h53.41.207,regret_experiment,2024.2.4,119.94572551783905,1,0.2,0.5,0.7,2025-08-07 10h53.51.244946 -0700,
,,,,,,,,,,,,,,,,,,,,,,,,,,,,,,,,,,,,,,,,,,,,,,,,,,,,,,,,,,,,,,,,,,,N/A,288.7482229160014,288.7626107080014,,,,,,,,,,,,
