thisN,thisTrialN,thisRepN,key_resp_1.keys,key_resp_1.rt,key_resp_1.duration,regret_key.keys,regret_key.rt,regret_key.duration,trials.thisRepN,trials.thisTrialN,trials.thisN,trials.thisIndex,thisRow.t,notes,begin_exp.started,begin.started,advance_key.started,begin_exp.stopped,advance_key.keys,advance_key.rt,advance_key.duration,Fixation.started,fixcross.started,etRecord.started,Fixation.stopped,trial_num,participant_cond,prob_left,prob_up,prob_right,Choice.started,tree1_img.started,tree2_img.started,tree3_img.started,key_resp_1.started,Choice.stopped,trials.key_resp_1.keys,trials.key_resp_1.rt,trials.key_resp_1.duration,choice_key,choice_rt,choice_prob,points,Feedback.started,appleImage.started,tree1.started,tree2.started,tree3.started,Feedback.stopped,RegretRating.started,regret_scale.started,regret_key.started,rtree1.started,rtree2.started,rtree3.started,RegretRating.stopped,trials.regret_key.keys,trials.regret_key.rt,trials.regret_key.duration,regret_rating,regret_rt,ITI.started,blank_screen.started,blank_screen.stopped,ITI.stopped,fixcross.stopped,avg_regret,EndScreen.started,end_display.started,participant,session,date,expName,psychopyVersion,frameRate,participant_cond,prob_left,prob_up,prob_right,expStart,
,,,,,,,,,,,,,,,0.06007895799996277,0.07979979200001708,0.07979979200001708,6.393791832999909,space,6.248298750000004,None,,,,,,1,0.5,0.2,0.7,,,,,,,,,,,,,,,,,,,,,,,,,,,,,,,,,,,,,,,,744341,001,2025-08-07_15h17.29.304,regret_experiment,2024.2.4,117.74951198125122,1,0.5,0.2,0.7,2025-08-07 15h17.41.759165 -0700,
0,0,0,left,1.122434958000099,None,1,3.2963942500000485,None,0,0,0,0,6.966830707999975,,,,,,,,,6.39551583299999,6.966830707999975,0.001709874999960448,7.397384666999983,1,1,0.5,0.2,0.7,7.398389332999955,7.410059832999991,7.410059832999991,7.410059832999991,7.410059832999991,8.53810616699991,left,1.122434958000099,None,left,1.122434958000099,0.5,0,8.556134666999924,8.69875962499998,8.69875962499998,8.69875962499998,8.69875962499998,10.547283874999948,10.556361791999961,10.56487033299993,10.56487033299993,10.56487033299993,10.56487033299993,10.56487033299993,13.864517666999973,1,3.2963942500000485,None,1,3.2963942500000485,13.864611624999952,13.872070042000018,14.869150666999985,14.86407266699996,,,,,744341,001,2025-08-07_15h17.29.304,regret_experiment,2024.2.4,117.74951198125122,1,0.5,0.2,0.7,2025-08-07 15h17.41.759165 -0700,
1,0,1,up,0.6560607499999378,None,1,1.214097250000009,None,1,0,1,0,14.869150666999985,,,,,,,,,14.864441416999966,14.869150666999985,-0.00012162500001977605,15.862977874999956,2,1,0.5,0.2,0.7,15.863249916999962,15.868182082999965,15.868182082999965,15.868182082999965,15.868182082999965,16.53133508299993,up,0.6560607499999378,None,up,0.6560607499999378,0.2,0,16.543922457999997,16.55581858300002,16.55581858300002,16.55581858300002,16.55581858300002,18.535352375000002,18.543435457999976,18.55073245799997,18.55073245799997,18.55073245799997,18.55073245799997,18.55073245799997,19.769835833000002,1,1.214097250000009,None,1,1.214097250000009,19.76992041699998,19.77994808299991,20.768262041999947,20.763494332999926,15.868182082999965,,,,744341,001,2025-08-07_15h17.29.304,regret_experiment,2024.2.4,117.74951198125122,1,0.5,0.2,0.7,2025-08-07 15h17.41.759165 -0700,
2,0,2,right,0.45851870800004235,None,1,0.43427362500005984,None,2,0,2,0,20.768262041999947,,,,,,,,,20.76381758299999,20.768262041999947,0.009739874999922904,21.75342083299995,3,1,0.5,0.2,0.7,21.753671166999993,21.76205933299991,21.76205933299991,21.76205933299991,21.76205933299991,22.231017167000005,right,0.45851870800004235,None,right,0.45851870800004235,0.7,0,22.24302499999999,22.250153332999957,22.250153332999957,22.250153332999957,22.250153332999957,24.236634666999976,24.244441832999996,24.250870041999974,24.250870041999974,24.250870041999974,24.250870041999974,24.250870041999974,24.686653124999907,1,0.43427362500005984,None,1,0.43427362500005984,24.68672991699998,24.69621241699997,25.68502849999993,25.67980662499997,21.76205933299991,,,,744341,001,2025-08-07_15h17.29.304,regret_experiment,2024.2.4,117.74951198125122,1,0.5,0.2,0.7,2025-08-07 15h17.41.759165 -0700,
3,0,3,left,0.6403245830000515,None,None,,,3,0,3,0,25.68502849999993,,,,,,,,,25.68043683299993,25.68502849999993,0.008761917000015274,26.668646916999933,4,1,0.5,0.2,0.7,26.669176666999988,26.68435866699997,26.68435866699997,26.68435866699997,26.68435866699997,27.331322916999966,left,0.6403245830000515,None,left,0.6403245830000515,0.5,1,27.344757833000017,27.35168058299996,27.35168058299996,27.35168058299996,27.35168058299996,29.336662666999928,29.33716258300001,,,,,,29.337199374999955,None,,,NA,NA,29.33724354200001,29.346843457999967,30.33675966699991,30.33128758299995,26.678855124999927,,,,744341,001,2025-08-07_15h17.29.304,regret_experiment,2024.2.4,117.74951198125122,1,0.5,0.2,0.7,2025-08-07 15h17.41.759165 -0700,
4,0,4,left,0.4641542079999681,None,2,0.4961046250000436,None,4,0,4,0,30.33675966699991,,,,,,,,,30.33191649999992,30.33675966699991,-0.00037845899998956156,31.329125041999987,5,1,0.5,0.2,0.7,31.329445041999975,31.334353207999925,31.334353207999925,31.334353207999925,31.334353207999925,31.803195125000002,left,0.4641542079999681,None,left,0.4641542079999681,0.5,0,31.815473999999995,31.837138916999947,31.837138916999947,31.837138916999947,31.837138916999947,33.81332695799995,33.82219195799996,33.828660416999924,33.828660416999924,33.828660416999924,33.828660416999924,33.828660416999924,34.33107308299998,2,0.4961046250000436,None,2,0.4961046250000436,34.331163833000005,34.337469082999974,35.33692454200002,35.330482666999956,31.334353207999925,,,,744341,001,2025-08-07_15h17.29.304,regret_experiment,2024.2.4,117.74951198125122,1,0.5,0.2,0.7,2025-08-07 15h17.41.759165 -0700,
5,0,5,up,0.5718209999999999,None,1,0.2737172920000148,None,5,0,5,0,35.33692454200002,,,,,,,,,35.331278124999926,35.33692454200002,0.00018345900002714188,36.330495749999955,6,1,0.5,0.2,0.7,36.33099112499997,36.336809958,36.336809958,36.336809958,36.336809958,36.91467224999997,up,0.5718209999999999,None,up,0.5718209999999999,0.2,0,36.92782804199999,36.93480245799992,36.93480245799992,36.93480245799992,36.93480245799992,38.918173583,38.924801291999984,38.94689820799999,38.94689820799999,38.94689820799999,38.94689820799999,38.94689820799999,39.23065558299993,1,0.2737172920000148,None,1,0.2737172920000148,39.230734041999995,39.237285749999955,40.236762,40.23081070799992,36.336809958,,,,744341,001,2025-08-07_15h17.29.304,regret_experiment,2024.2.4,117.74951198125122,1,0.5,0.2,0.7,2025-08-07 15h17.41.759165 -0700,
6,0,6,right,0.3222915840000269,None,None,,,6,0,6,0,40.236762,,,,,,,,,40.23192745799997,40.236762,0.001258749999919928,41.22941170799993,7,1,0.5,0.2,0.7,41.22965579200002,41.23464462499999,41.23464462499999,41.23464462499999,41.23464462499999,41.564507542,right,0.3222915840000269,None,right,0.3222915840000269,0.7,1,41.57632975000001,41.583189167,41.583189167,41.583189167,41.583189167,43.56915425,43.57024529199998,,,,,,43.57033420799996,None,,,NA,NA,43.570444332999955,43.57914508299996,44.567674624999995,44.56281108299993,41.23464462499999,,,,744341,001,2025-08-07_15h17.29.304,regret_experiment,2024.2.4,117.74951198125122,1,0.5,0.2,0.7,2025-08-07 15h17.41.759165 -0700,
7,0,7,right,0.5004080410000142,None,None,,,7,0,7,0,44.567674624999995,,,,,,,,,44.563177124999925,44.567674624999995,0.009905874999958542,45.55152629199995,8,1,0.5,0.2,0.7,45.551746874999935,45.56847862500001,45.56847862500001,45.56847862500001,45.56847862500001,46.08046183299996,right,0.5004080410000142,None,right,0.5004080410000142,0.7,1,46.092054332999965,46.099326625,46.099326625,46.099326625,46.099326625,48.08465574999991,48.08514816699994,,,,,,48.08519049999995,None,,,NA,NA,48.08523887499996,48.096937124999954,49.086143291999974,49.08101520799994,45.56350287499993,,,,744341,001,2025-08-07_15h17.29.304,regret_experiment,2024.2.4,117.74951198125122,1,0.5,0.2,0.7,2025-08-07 15h17.41.759165 -0700,
8,0,8,right,0.35200562499994703,None,2,1.188732707999975,None,8,0,8,0,49.086143291999974,,,,,,,,,49.08140283299997,49.086143291999974,0.001020834000087234,50.06992254199997,9,1,0.5,0.2,0.7,50.07031683299999,50.07994408299999,50.07994408299999,50.07994408299999,50.07994408299999,50.43704762499999,right,0.35200562499994703,None,right,0.35200562499994703,0.7,0,50.45059112499996,50.45849649999991,50.45849649999991,50.45849649999991,50.45849649999991,52.446414499999946,52.45327358299994,52.459897458,52.459897458,52.459897458,52.459897458,52.459897458,53.65523533299995,2,1.188732707999975,None,2,1.188732707999975,53.65530629199998,53.66332808300001,54.654686083,54.64804066699992,50.07994408299999,,,,744341,001,2025-08-07_15h17.29.304,regret_experiment,2024.2.4,117.74951198125122,1,0.5,0.2,0.7,2025-08-07 15h17.41.759165 -0700,
9,0,9,right,0.46200070800000503,None,2,0.3341220830000111,None,9,0,9,0,54.654686083,,,,,,,,,54.64897595799994,54.654686083,-0.00048604199992041686,55.64746437499991,10,1,0.5,0.2,0.7,55.64777566700002,55.6545615,55.6545615,55.6545615,55.6545615,56.12138216699998,right,0.46200070800000503,None,right,0.46200070800000503,0.7,0,56.134179124999946,56.14162949999991,56.14162949999991,56.14162949999991,56.14162949999991,58.129446583000004,58.136084457999914,58.14205974999993,58.14205974999993,58.14205974999993,58.14205974999993,58.14205974999993,58.48167574999991,2,0.3341220830000111,None,2,0.3341220830000111,58.481757374999916,58.48833987499995,59.486362207999946,59.48065558299993,55.6545615,,,,744341,001,2025-08-07_15h17.29.304,regret_experiment,2024.2.4,117.74951198125122,1,0.5,0.2,0.7,2025-08-07 15h17.41.759165 -0700,
10,0,10,left,0.2841537499999731,None,None,,,10,0,10,0,59.486362207999946,,,,,,,,,59.481035667000015,59.486362207999946,-0.0006643330000315473,60.47169974999997,11,1,0.5,0.2,0.7,60.47195024999996,60.48020537499997,60.48020537499997,60.48020537499997,60.48020537499997,60.770042750000016,left,0.2841537499999731,None,left,0.2841537499999731,0.5,1,60.78268983299995,60.78941741699998,60.78941741699998,60.78941741699998,60.78941741699998,62.77060145799999,62.771137167000006,,,,,,62.77116816699993,None,,,NA,NA,62.77122850000001,62.77910137499998,63.769066332999955,63.76368249999996,60.48020537499997,,,,744341,001,2025-08-07_15h17.29.304,regret_experiment,2024.2.4,117.74951198125122,1,0.5,0.2,0.7,2025-08-07 15h17.41.759165 -0700,
11,0,11,left,0.3073660000000018,None,2,0.5132781670000668,None,11,0,11,0,63.769066332999955,,,,,,,,,63.764069457999994,63.769066332999955,0.009387624999931177,64.75301208299993,12,1,0.5,0.2,0.7,64.75328049999996,64.76921508299995,64.76921508299995,64.76921508299995,64.76921508299995,65.08139879199996,left,0.3073660000000018,None,left,0.3073660000000018,0.5,0,65.09500170799993,65.10481787499998,65.10481787499998,65.10481787499998,65.10481787499998,67.08555154199996,67.092224042,67.10122608299991,67.10122608299991,67.10122608299991,67.10122608299991,67.10122608299991,67.62163504199998,2,0.5132781670000668,None,2,0.5132781670000668,67.62173074999998,67.63378966699997,68.63014520799993,68.62075449999998,64.76309441699993,,,,744341,001,2025-08-07_15h17.29.304,regret_experiment,2024.2.4,117.74951198125122,1,0.5,0.2,0.7,2025-08-07 15h17.41.759165 -0700,
12,0,12,right,0.27827158299999155,None,None,,,12,0,12,0,68.63014520799993,,,,,,,,,68.621081,68.63014520799993,-0.0006011250000028667,69.61502787500001,13,1,0.5,0.2,0.7,69.61527241699991,69.62251595800001,69.62251595800001,69.62251595800001,69.62251595800001,69.90690191699991,right,0.27827158299999155,None,right,0.27827158299999155,0.7,1,69.92377295799997,69.93439112499993,69.93439112499993,69.93439112499993,69.93439112499993,71.91388108299998,71.91458545799992,,,,,,71.91463791699994,None,,,NA,NA,71.914767042,71.91989729199997,72.918798875,72.91281216699997,69.62251595800001,,,,744341,001,2025-08-07_15h17.29.304,regret_experiment,2024.2.4,117.74951198125122,1,0.5,0.2,0.7,2025-08-07 15h17.41.759165 -0700,
13,0,13,right,0.3262950419999697,None,None,,,13,0,13,0,72.918798875,,,,,,,,,72.91331808299992,72.918798875,0.004196249999949941,73.90309879199992,14,1,0.5,0.2,0.7,73.90333874999999,73.91393825,73.91393825,73.91393825,73.91393825,74.262846083,right,0.3262950419999697,None,right,0.3262950419999697,0.7,1,74.28234375,74.34363695799993,74.34363695799993,74.34363695799993,74.34363695799993,76.26356545800002,76.26426133299992,,,,,,76.26438024999993,None,,,NA,NA,76.26453412499995,76.26944758299999,77.26391979199991,77.25322087500001,73.91393825,,,,744341,001,2025-08-07_15h17.29.304,regret_experiment,2024.2.4,117.74951198125122,1,0.5,0.2,0.7,2025-08-07 15h17.41.759165 -0700,
14,0,14,right,0.388221041999941,None,None,,,14,0,14,0,77.26391979199991,,,,,,,,,77.25359737499991,77.26391979199991,-0.0004839579999043053,78.25315349999994,15,1,0.5,0.2,0.7,78.25346974999991,78.26488566699993,78.26488566699993,78.26488566699993,78.26488566699993,78.655280458,right,0.388221041999941,None,right,0.388221041999941,0.7,1,78.66836395799999,78.67915162499992,78.67915162499992,78.67915162499992,78.67915162499992,80.66352291699991,80.66386733299998,,,,,,80.66390799999999,None,,,NA,NA,80.66399274999992,80.66887912499999,81.66966533300001,81.66443312499996,78.26488566699993,,,,744341,001,2025-08-07_15h17.29.304,regret_experiment,2024.2.4,117.74951198125122,1,0.5,0.2,0.7,2025-08-07 15h17.41.759165 -0700,
15,0,15,right,0.2799091659999249,None,None,,,15,0,15,0,81.66966533300001,,,,,,,,,81.66480020799997,81.66966533300001,0.0008695830000533533,82.66325741699995,16,1,0.5,0.2,0.7,82.66353283299998,82.66875862500001,82.66875862500001,82.66875862500001,82.66875862500001,82.953160583,right,0.2799091659999249,None,right,0.2799091659999249,0.7,1,82.96625179199998,82.97383116699996,82.97383116699996,82.97383116699996,82.97383116699996,84.95345204199998,84.954015583,,,,,,84.95405479199997,None,,,NA,NA,84.954129792,84.96291804199996,85.95120033299997,85.946122167,82.66875862500001,,,,744341,001,2025-08-07_15h17.29.304,regret_experiment,2024.2.4,117.74951198125122,1,0.5,0.2,0.7,2025-08-07 15h17.41.759165 -0700,
16,0,16,right,0.21097537499997543,None,None,,,16,0,16,0,85.95120033299997,,,,,,,,,85.94659287499996,85.95120033299997,0.009375666999972054,86.93522845799998,17,1,0.5,0.2,0.7,86.935440083,86.95351579199996,86.95351579199996,86.95351579199996,86.95351579199996,87.16958345799992,right,0.21097537499997543,None,right,0.21097537499997543,0.7,1,87.18367483299994,87.19081774999995,87.19081774999995,87.19081774999995,87.19081774999995,89.17936066699997,89.18010808299994,,,,,,89.180204333,None,,,NA,NA,89.18033512499994,89.18540133299996,90.17899883299992,90.16873216699992,86.94669516699992,,,,744341,001,2025-08-07_15h17.29.304,regret_experiment,2024.2.4,117.74951198125122,1,0.5,0.2,0.7,2025-08-07 15h17.41.759165 -0700,
17,0,17,right,0.27267333400004645,None,None,,,17,0,17,0,90.17899883299992,,,,,,,,,90.16934933300001,90.17899883299992,0.0036106659999859403,91.162200375,18,1,0.5,0.2,0.7,91.162493875,91.18014679199996,91.18014679199996,91.18014679199996,91.18014679199996,91.46384979200002,right,0.27267333400004645,None,right,0.27267333400004645,0.7,1,91.47537491699995,91.482786583,91.482786583,91.482786583,91.482786583,93.47001112499993,93.470498292,,,,,,93.47053291700001,None,,,NA,NA,93.47058441699994,93.47912833299995,94.46953041699999,94.46372141699999,91.16691404199992,,,,744341,001,2025-08-07_15h17.29.304,regret_experiment,2024.2.4,117.74951198125122,1,0.5,0.2,0.7,2025-08-07 15h17.41.759165 -0700,
18,0,18,right,0.2569817080000121,None,1,1.9883665419999943,None,18,0,18,0,94.46953041699999,,,,,,,,,94.46497454199994,94.46953041699999,-0.0009509159999652184,95.46286462499995,19,1,0.5,0.2,0.7,95.46308775,95.46798941700001,95.46798941700001,95.46798941700001,95.46798941700001,95.73242833299992,right,0.2569817080000121,None,right,0.2569817080000121,0.7,0,95.74659595799994,95.75307399999997,95.75307399999997,95.75307399999997,95.75307399999997,97.73520999999994,97.74344712499999,97.75136629199994,97.75136629199994,97.75136629199994,97.75136629199994,97.75136629199994,99.74786108299998,1,1.9883665419999943,None,1,1.9883665419999943,99.74793120799995,99.75395637499992,100.7519041669999,100.74691124999993,95.46798941700001,,,,744341,001,2025-08-07_15h17.29.304,regret_experiment,2024.2.4,117.74951198125122,1,0.5,0.2,0.7,2025-08-07 15h17.41.759165 -0700,
19,0,19,right,0.22577354200006994,None,None,,,19,0,19,0,100.7519041669999,,,,,,,,,100.747233875,100.7519041669999,-0.0006557080000675342,101.73485433299993,20,1,0.5,0.2,0.7,101.73508212499996,101.746155542,101.746155542,101.746155542,101.746155542,101.98045924999997,right,0.22577354200006994,None,right,0.22577354200006994,0.7,1,101.99257566699998,101.99949683299997,101.99949683299997,101.99949683299997,101.99949683299997,103.98593012499998,103.98643016699998,,,,,,103.98647208299997,None,,,NA,NA,103.98652174999995,103.99629766699991,104.98603025,104.980359583,101.746155542,,,,744341,001,2025-08-07_15h17.29.304,regret_experiment,2024.2.4,117.74951198125122,1,0.5,0.2,0.7,2025-08-07 15h17.41.759165 -0700,
20,0,20,right,0.2525401670000065,None,None,,,20,0,20,0,104.98603025,,,,,,,,,104.9810635,104.98603025,-0.00039162499990652577,105.97012324999992,21,1,0.5,0.2,0.7,105.97036891699997,105.97933095799999,105.97933095799999,105.97933095799999,105.97933095799999,106.23618904199998,right,0.2525401670000065,None,right,0.2525401670000065,0.7,1,106.24800833299992,106.25562729199999,106.25562729199999,106.25562729199999,106.25562729199999,108.24670095800002,108.24734016699995,,,,,,108.24744691699993,None,,,NA,NA,108.24761929199997,108.25314708299993,109.25328270799992,109.24674966700002,105.97933095799999,,,,744341,001,2025-08-07_15h17.29.304,regret_experiment,2024.2.4,117.74951198125122,1,0.5,0.2,0.7,2025-08-07 15h17.41.759165 -0700,
21,0,21,left,0.31255754200003594,None,3,0.4188792500000318,None,21,0,21,0,109.25328270799992,,,,,,,,,109.24717033299999,109.25328270799992,-0.00035833300000831514,110.24712870799999,22,1,0.5,0.2,0.7,110.24733824999998,110.25214866699991,110.25214866699991,110.25214866699991,110.25214866699991,110.570922,left,0.31255754200003594,None,left,0.31255754200003594,0.5,0,110.58595808299992,110.59552812499999,110.59552812499999,110.59552812499999,110.59552812499999,112.58006658299996,112.58895991700001,112.59594770799993,112.59594770799993,112.59594770799993,112.59594770799993,112.59594770799993,113.02075754199996,3,0.4188792500000318,None,3,0.4188792500000318,113.020835208,113.02923120799994,114.01710687499997,114.01210500000002,110.25214866699991,,,,744341,001,2025-08-07_15h17.29.304,regret_experiment,2024.2.4,117.74951198125122,1,0.5,0.2,0.7,2025-08-07 15h17.41.759165 -0700,
22,0,22,up,0.28231208299996524,None,None,,,22,0,22,0,114.01710687499997,,,,,,,,,114.01249824999991,114.01710687499997,0.008257958000058352,115.00255770799993,23,1,0.5,0.2,0.7,115.00279920799994,115.01890212499995,115.01890212499995,115.01890212499995,115.01890212499995,115.30269520799993,up,0.28231208299996524,None,up,0.28231208299996524,0.2,1,115.31432208299998,115.32308449999994,115.32308449999994,115.32308449999994,115.32308449999994,117.30349087499997,117.30398387499997,,,,,,117.30401941699995,None,,,NA,NA,117.30406716699997,117.31305087499993,118.30195416699996,118.29652358299995,115.01329870799998,,,,744341,001,2025-08-07_15h17.29.304,regret_experiment,2024.2.4,117.74951198125122,1,0.5,0.2,0.7,2025-08-07 15h17.41.759165 -0700,
23,0,23,up,0.2537940409999919,None,2,0.37599487500006035,None,23,0,23,0,118.30195416699996,,,,,,,,,118.297354208,118.30195416699996,0.009034832999986975,119.28645945799997,24,1,0.5,0.2,0.7,119.286686583,119.30278345799991,119.30278345799991,119.30278345799991,119.30278345799991,119.56445954200001,up,0.2537940409999919,None,up,0.2537940409999919,0.2,0,119.57748166699992,119.58410495800001,119.58410495800001,119.58410495800001,119.58410495800001,121.56816612499995,121.57475062499998,121.59585079199996,121.59585079199996,121.59585079199996,121.59585079199996,121.59585079199996,121.98020837499996,2,0.37599487500006035,None,2,0.37599487500006035,121.980294458,121.98697983299996,122.984509667,122.97944324999992,119.29575837499999,,,,744341,001,2025-08-07_15h17.29.304,regret_experiment,2024.2.4,117.74951198125122,1,0.5,0.2,0.7,2025-08-07 15h17.41.759165 -0700,
24,0,24,up,0.28174758300008307,None,3,0.8003409579999925,None,24,0,24,0,122.984509667,,,,,,,,,122.97980104199996,122.984509667,-0.00044354100009513786,123.96792045799998,25,1,0.5,0.2,0.7,123.96820620799997,123.97836204199996,123.97836204199996,123.97836204199996,123.97836204199996,124.26518166699998,up,0.28174758300008307,None,up,0.28174758300008307,0.2,0,124.27888908299997,124.28555054200001,124.28555054200001,124.28555054200001,124.28555054200001,126.269259917,126.27586199999996,126.28343462499993,126.28343462499993,126.28343462499993,126.28343462499993,126.28343462499993,127.08817520799994,3,0.8003409579999925,None,3,0.8003409579999925,127.08823974999996,127.09573220799996,128.088601542,128.08063845799995,123.97836204199996,,,,744341,001,2025-08-07_15h17.29.304,regret_experiment,2024.2.4,117.74951198125122,1,0.5,0.2,0.7,2025-08-07 15h17.41.759165 -0700,
25,0,25,left,0.2710572500000126,None,None,,,25,0,25,0,128.088601542,,,,,,,,,128.08143474999997,128.088601542,0.0004547080000065762,129.07864712499997,26,1,0.5,0.2,0.7,129.078937667,129.08499825,129.08499825,129.08499825,129.08499825,129.36382170799993,left,0.2710572500000126,None,left,0.2710572500000126,0.5,1,129.375243833,129.38344370799996,129.38344370799996,129.38344370799996,129.38344370799996,131.36817679199999,131.36875195799996,,,,,,131.368785042,None,,,NA,NA,131.36885208299998,131.379065458,132.36961229199994,132.3638847919999,129.08499825,,,,744341,001,2025-08-07_15h17.29.304,regret_experiment,2024.2.4,117.74951198125122,1,0.5,0.2,0.7,2025-08-07 15h17.41.759165 -0700,
26,0,26,left,0.31726195800001733,None,2,0.9246089999999185,None,26,0,26,0,132.36961229199994,,,,,,,,,132.36480708299996,132.36961229199994,0.0008565000000544387,133.362500458,27,1,0.5,0.2,0.7,133.36278916699996,133.367695917,133.367695917,133.367695917,133.367695917,133.68655041699992,left,0.31726195800001733,None,left,0.31726195800001733,0.5,0,133.69888387499998,133.70532312499995,133.70532312499995,133.70532312499995,133.70532312499995,135.696146,135.704923625,135.711029875,135.711029875,135.711029875,135.711029875,135.711029875,136.64779329199996,2,0.9246089999999185,None,2,0.9246089999999185,136.64786395800002,136.654812708,137.65415608299998,137.64762695799993,133.367695917,,,,744341,001,2025-08-07_15h17.29.304,regret_experiment,2024.2.4,117.74951198125122,1,0.5,0.2,0.7,2025-08-07 15h17.41.759165 -0700,
27,0,27,left,0.2960365000000138,None,None,,,27,0,27,0,137.65415608299998,,,,,,,,,137.64856737499997,137.65415608299998,0.0007865830000355345,138.646997542,28,1,0.5,0.2,0.7,138.64765491699995,138.65276337499995,138.65276337499995,138.65276337499995,138.65276337499995,138.952566875,left,0.2960365000000138,None,left,0.2960365000000138,0.5,1,138.96399504199996,138.97050862499998,138.97050862499998,138.97050862499998,138.97050862499998,140.96265345799998,140.96309541699998,,,,,,140.963131042,None,,,NA,NA,140.96318037499998,140.967374167,141.9619292499999,141.95063208299996,138.65276337499995,,,,744341,001,2025-08-07_15h17.29.304,regret_experiment,2024.2.4,117.74951198125122,1,0.5,0.2,0.7,2025-08-07 15h17.41.759165 -0700,
28,0,28,left,0.3704482079999707,None,2,0.25559020900004725,None,28,0,28,0,141.9619292499999,,,,,,,,,141.95100116699996,141.9619292499999,0.0036477080000167916,142.94772516699993,29,1,0.5,0.2,0.7,142.94838783299997,142.95361587499997,142.95361587499997,142.95361587499997,142.95361587499997,143.33076725,left,0.3704482079999707,None,left,0.3704482079999707,0.5,0,143.342812375,143.34929958299995,143.34929958299995,143.34929958299995,143.34929958299995,145.33610224999995,145.34278208299997,145.34948808299998,145.34948808299998,145.34948808299998,145.34948808299998,145.34948808299998,145.61371987500002,2,0.25559020900004725,None,2,0.25559020900004725,145.613794708,145.61990416699996,146.613545208,146.603218083,142.95361587499997,,,,744341,001,2025-08-07_15h17.29.304,regret_experiment,2024.2.4,117.74951198125122,1,0.5,0.2,0.7,2025-08-07 15h17.41.759165 -0700,
29,0,29,right,0.25543991600000027,None,None,,,29,0,29,0,146.613545208,,,,,,,,,146.60355379199996,146.613545208,-0.00016087500000594446,147.59737095799994,30,1,0.5,0.2,0.7,147.59831729199993,147.60498941699996,147.60498941699996,147.60498941699996,147.60498941699996,147.86509745799992,right,0.25543991600000027,None,right,0.25543991600000027,0.7,1,147.87708629199994,147.88498645799996,147.88498645799996,147.88498645799996,147.88498645799996,149.87020395799993,149.87070666699992,,,,,,149.87074770799995,None,,,NA,NA,149.870822417,149.8790047079999,150.871333875,150.86451254199994,147.60498941699996,,,,744341,001,2025-08-07_15h17.29.304,regret_experiment,2024.2.4,117.74951198125122,1,0.5,0.2,0.7,2025-08-07 15h17.41.759165 -0700,
30,0,30,right,0.39827500000001237,None,None,,,30,0,30,0,150.871333875,,,,,,,,,150.86531412499994,150.871333875,0.0006657500000528671,151.86371987500002,31,1,0.5,0.2,0.7,151.86397833299998,151.8698045,151.8698045,151.8698045,151.8698045,152.27073066699995,right,0.39827500000001237,None,right,0.39827500000001237,0.7,1,152.283555083,152.29155804200002,152.29155804200002,152.29155804200002,152.29155804200002,154.27959887499992,154.28017616699992,,,,,,154.28021654199995,None,,,NA,NA,154.28026820799994,154.28636499999993,155.279134333,155.27065654199998,151.8698045,,,,744341,001,2025-08-07_15h17.29.304,regret_experiment,2024.2.4,117.74951198125122,1,0.5,0.2,0.7,2025-08-07 15h17.41.759165 -0700,
31,0,31,right,0.2931209590000208,None,None,,,31,0,31,0,155.279134333,,,,,,,,,155.27098858299996,155.279134333,0.004001458000061575,156.26265445799993,32,1,0.5,0.2,0.7,156.26289795799994,156.27925308299996,156.27925308299996,156.27925308299996,156.27925308299996,156.58180937499992,right,0.2931209590000208,None,right,0.2931209590000208,0.7,1,156.59341262499993,156.600233958,156.600233958,156.600233958,156.600233958,158.5875175829999,158.58801783299998,,,,,,158.58806174999995,None,,,NA,NA,158.5881096669999,158.596448333,159.78875466699992,159.58025487499992,156.26741774999994,,,,744341,001,2025-08-07_15h17.29.304,regret_experiment,2024.2.4,117.74951198125122,1,0.5,0.2,0.7,2025-08-07 15h17.41.759165 -0700,
32,0,32,right,0.35458666700003505,None,None,,,32,0,32,0,159.78875466699992,,,,,,,,,159.580723208,159.78875466699992,0.200777042000027,160.59619033299998,33,1,0.5,0.2,0.7,160.59661495799992,160.60191770799997,160.60191770799997,160.60191770799997,160.60191770799997,160.96474495799998,right,0.35458666700003505,None,right,0.35458666700003505,0.7,1,160.97850470799995,160.98659091699994,160.98659091699994,160.98659091699994,160.98659091699994,162.96819395799992,162.96911691699995,,,,,,162.96922166699994,None,,,NA,NA,162.96933920799995,162.97974191699996,163.96912587499992,163.96377008299999,,,,,744341,001,2025-08-07_15h17.29.304,regret_experiment,2024.2.4,117.74951198125122,1,0.5,0.2,0.7,2025-08-07 15h17.41.759165 -0700,
33,0,33,right,0.2362398329998996,None,None,,,33,0,33,0,163.96912587499992,,,,,,,,,163.964064625,163.96912587499992,-6.708400007937598e-05,164.953433958,34,1,0.5,0.2,0.7,164.953717375,164.962767417,164.962767417,164.962767417,164.962767417,165.204476333,right,0.2362398329998996,None,right,0.2362398329998996,0.7,0,165.21896479199995,165.22696741699997,165.22696741699997,165.22696741699997,165.22696741699997,167.21369941699993,167.21419749999995,,,,,,167.21423545799996,None,,,NA,NA,167.21429120799996,167.21959212499996,168.21955849999995,168.214046833,164.962767417,,,,744341,001,2025-08-07_15h17.29.304,regret_experiment,2024.2.4,117.74951198125122,1,0.5,0.2,0.7,2025-08-07 15h17.41.759165 -0700,
34,0,34,right,0.24564495799995711,None,None,,,34,0,34,0,168.21955849999995,,,,,,,,,168.21441337499994,168.21955849999995,0.0001619579999214693,169.20328625000002,35,1,0.5,0.2,0.7,169.20365725,169.21357524999996,169.21357524999996,169.21357524999996,169.21357524999996,169.46498599999995,right,0.24564495799995711,None,right,0.24564495799995711,0.7,1,169.47867941699997,169.48664270799998,169.48664270799998,169.48664270799998,169.48664270799998,171.4696171669999,171.47015254199994,,,,,,171.47018820799997,None,,,NA,NA,171.47024475,171.47972325,172.46966633299996,172.46392387499998,169.21357524999996,,,,744341,001,2025-08-07_15h17.29.304,regret_experiment,2024.2.4,117.74951198125122,1,0.5,0.2,0.7,2025-08-07 15h17.41.759165 -0700,
35,0,35,right,0.2859789159999764,None,None,,,35,0,35,0,172.46966633299996,,,,,,,,,172.46432012499997,172.46966633299996,-0.00044325000010303484,173.45310737499995,36,1,0.5,0.2,0.7,173.45338549999997,173.46939866699995,173.46939866699995,173.46939866699995,173.46939866699995,173.76470599999993,right,0.2859789159999764,None,right,0.2859789159999764,0.7,1,173.77900162499998,173.786309458,173.786309458,173.786309458,173.786309458,175.76861474999998,175.769102792,,,,,,175.769147083,None,,,NA,NA,175.76920124999992,175.77959512500001,176.76780158299994,176.76263908299995,173.46271920799995,,,,744341,001,2025-08-07_15h17.29.304,regret_experiment,2024.2.4,117.74951198125122,1,0.5,0.2,0.7,2025-08-07 15h17.41.759165 -0700,
36,0,36,right,0.2410047079999913,None,None,,,36,0,36,0,176.76780158299994,,,,,,,,,176.763098625,176.76780158299994,0.009593125000037617,177.75302016699993,37,1,0.5,0.2,0.7,177.75337383299996,177.76347687499992,177.76347687499992,177.76347687499992,177.76347687499992,178.0135547499999,right,0.2410047079999913,None,right,0.2410047079999913,0.7,0,178.0274462499999,178.03511958299998,178.03511958299998,178.03511958299998,178.03511958299998,180.0188281249999,180.019356958,,,,,,180.01939174999995,None,,,NA,NA,180.01944474999993,180.029579667,181.020623333,181.014460375,177.76347687499992,,,,744341,001,2025-08-07_15h17.29.304,regret_experiment,2024.2.4,117.74951198125122,1,0.5,0.2,0.7,2025-08-07 15h17.41.759165 -0700,
37,0,37,right,0.24810312500005693,None,None,,,37,0,37,0,181.020623333,,,,,,,,,181.01522929199996,181.020623333,0.001314541999931862,182.01365295799997,38,1,0.5,0.2,0.7,182.01391079199993,182.01984483299998,182.01984483299998,182.01984483299998,182.01984483299998,182.27029599999992,right,0.24810312500005693,None,right,0.24810312500005693,0.7,1,182.28239199999996,182.28985054199995,182.28985054199995,182.28985054199995,182.28985054199995,184.28012516699994,184.28062454199994,,,,,,184.28066454199995,None,,,NA,NA,184.28073087500002,184.28590524999993,185.28692720799995,185.28064058299992,182.01984483299998,,,,744341,001,2025-08-07_15h17.29.304,regret_experiment,2024.2.4,117.74951198125122,1,0.5,0.2,0.7,2025-08-07 15h17.41.759165 -0700,
38,0,38,right,0.021131332999971164,None,None,,,38,0,38,0,185.28692720799995,,,,,,,,,185.28108970799997,185.28692720799995,0.00040008300004501507,186.28008354199994,39,1,0.5,0.2,0.7,186.28051179199997,186.28620329199998,186.28620329199998,186.28620329199998,186.28620329199998,186.314745292,right,0.021131332999971164,None,right,0.021131332999971164,0.7,1,186.32684270799996,186.33450770799993,186.33450770799993,186.33450770799993,186.33450770799993,188.319587125,188.32017599999995,,,,,,188.32021183299992,None,,,NA,NA,188.32026391699992,188.33009149999998,189.319045125,189.31356112499998,186.28620329199998,,,,744341,001,2025-08-07_15h17.29.304,regret_experiment,2024.2.4,117.74951198125122,1,0.5,0.2,0.7,2025-08-07 15h17.41.759165 -0700,
39,0,39,right,0.3497266669999135,None,None,,,39,0,39,0,189.319045125,,,,,,,,,189.31394183299994,189.319045125,0.009783374999983607,190.312601708,40,1,0.5,0.2,0.7,190.31287524999993,190.318374833,190.318374833,190.318374833,190.318374833,190.67062662499995,right,0.3497266669999135,None,right,0.3497266669999135,0.7,0,190.68353920799996,190.69063145799998,190.69063145799998,190.69063145799998,190.69063145799998,192.67984716699993,192.680389333,,,,,,192.68043062499999,None,,,NA,NA,192.6804938749999,192.685905917,193.679134792,193.6702409579999,190.318374833,,,,744341,001,2025-08-07_15h17.29.304,regret_experiment,2024.2.4,117.74951198125122,1,0.5,0.2,0.7,2025-08-07 15h17.41.759165 -0700,
40,0,40,left,0.2526114999999436,None,None,,,40,0,40,0,193.679134792,,,,,,,,,193.67060141699994,193.679134792,0.00461220800002593,194.66444862499998,41,1,0.5,0.2,0.7,194.66484958299998,194.679437625,194.679437625,194.679437625,194.679437625,194.937400583,left,0.2526114999999436,None,left,0.2526114999999436,0.5,1,194.949663375,194.956835792,194.956835792,194.956835792,194.956835792,196.946147042,196.94672112499995,,,,,,196.9467733749999,None,,,NA,NA,196.94684870799995,196.95220825,197.94673924999995,197.936071417,194.66991162499994,,,,744341,001,2025-08-07_15h17.29.304,regret_experiment,2024.2.4,117.74951198125122,1,0.5,0.2,0.7,2025-08-07 15h17.41.759165 -0700,
41,0,41,left,0.2441884579999396,None,None,,,41,0,41,0,197.94673924999995,,,,,,,,,197.93646145799994,197.94673924999995,-2.5829999685811345e-06,198.93023704199993,42,1,0.5,0.2,0.7,198.930608625,198.936409625,198.936409625,198.936409625,198.936409625,199.1871944579999,left,0.2441884579999396,None,left,0.2441884579999396,0.5,0,199.20010791699997,199.20746424999993,199.20746424999993,199.20746424999993,199.20746424999993,201.19634779199998,201.19697504199996,,,,,,201.19702608299997,None,,,NA,NA,201.19708824999998,201.202272667,202.196551958,202.18705779200002,198.936409625,,,,744341,001,2025-08-07_15h17.29.304,regret_experiment,2024.2.4,117.74951198125122,1,0.5,0.2,0.7,2025-08-07 15h17.41.759165 -0700,
42,0,42,right,0.4644768749999457,None,None,,,42,0,42,0,202.196551958,,,,,,,,,202.18741687499994,202.196551958,-0.00043808300006276113,203.180346042,43,1,0.5,0.2,0.7,203.18089062499996,203.18667479199996,203.18667479199996,203.18667479199996,203.18667479199996,203.655791583,right,0.4644768749999457,None,right,0.4644768749999457,0.7,1,203.66816679199997,203.67553075,203.67553075,203.67553075,203.67553075,205.66243004199998,205.66278820799994,,,,,,205.662817625,None,,,NA,NA,205.66286624999998,205.667770625,206.662160708,206.65230275,203.18667479199996,,,,744341,001,2025-08-07_15h17.29.304,regret_experiment,2024.2.4,117.74951198125122,1,0.5,0.2,0.7,2025-08-07 15h17.41.759165 -0700,
43,0,43,right,0.1992160000000922,None,None,,,43,0,43,0,206.662160708,,,,,,,,,206.6526295829999,206.662160708,-0.0006054579999954512,207.64675216699993,44,1,0.5,0.2,0.7,207.64720787499994,207.65248116700002,207.65248116700002,207.65248116700002,207.65248116700002,207.8533205829999,right,0.1992160000000922,None,right,0.1992160000000922,0.7,1,207.86483187499994,207.87119291699992,207.87119291699992,207.87119291699992,207.87119291699992,209.86197133299993,209.86286274999998,,,,,,209.86296841699993,None,,,NA,NA,209.86310587499997,209.86820691699995,210.867854083,210.86206966700001,207.65248116700002,,,,744341,001,2025-08-07_15h17.29.304,regret_experiment,2024.2.4,117.74951198125122,1,0.5,0.2,0.7,2025-08-07 15h17.41.759165 -0700,
44,0,44,right,0.23628216700001303,None,None,,,44,0,44,0,210.867854083,,,,,,,,,210.862929667,210.867854083,-0.00010454200003096048,211.85111912499997,45,1,0.5,0.2,0.7,211.851333125,211.86265708299993,211.86265708299993,211.86265708299993,211.86265708299993,212.103510583,right,0.23628216700001303,None,right,0.23628216700001303,0.7,1,212.11510533299997,212.1215115,212.1215115,212.1215115,212.1215115,214.112215667,214.112635458,,,,,,214.11267179200001,None,,,NA,NA,214.11272324999993,214.11834429199996,215.11910787499994,215.11297762499998,211.86265708299993,,,,744341,001,2025-08-07_15h17.29.304,regret_experiment,2024.2.4,117.74951198125122,1,0.5,0.2,0.7,2025-08-07 15h17.41.759165 -0700,
45,0,45,right,0.2359990420000031,None,None,,,45,0,45,0,215.11910787499994,,,,,,,,,215.11414025,215.11910787499994,0.0014633330000606293,216.113244625,46,1,0.5,0.2,0.7,216.113692292,216.11934470799997,216.11934470799997,216.11934470799997,216.11934470799997,216.36279545799994,right,0.2359990420000031,None,right,0.2359990420000031,0.7,1,216.37406695799996,216.38099516699992,216.38099516699992,216.38099516699992,216.38099516699992,218.368754125,218.36912599999994,,,,,,218.36916974999997,None,,,NA,NA,218.36924479200002,218.37917108299996,219.37801512499993,219.36687899999993,216.11934470799997,,,,744341,001,2025-08-07_15h17.29.304,regret_experiment,2024.2.4,117.74951198125122,1,0.5,0.2,0.7,2025-08-07 15h17.41.759165 -0700,
46,0,46,right,0.2475256249999802,None,None,,,46,0,46,0,219.37801512499993,,,,,,,,,219.36721887499993,219.37801512499993,0.008914834000051997,220.36139904200002,47,1,0.5,0.2,0.7,220.36170570799993,220.36659854200002,220.36659854200002,220.36659854200002,220.36659854200002,220.61852558299995,right,0.2475256249999802,None,right,0.2475256249999802,0.7,1,220.6298472919999,220.63642283299998,220.63642283299998,220.63642283299998,220.63642283299998,222.62936645799994,222.62997637499996,,,,,,222.630069542,None,,,NA,NA,222.63018954199993,222.63577079200002,223.635849667,223.62956129199995,220.36659854200002,,,,744341,001,2025-08-07_15h17.29.304,regret_experiment,2024.2.4,117.74951198125122,1,0.5,0.2,0.7,2025-08-07 15h17.41.759165 -0700,
47,0,47,right,0.2392250000000331,None,None,,,47,0,47,0,223.635849667,,,,,,,,,223.6302096249999,223.635849667,9.920799993778928e-05,224.61975166699995,48,1,0.5,0.2,0.7,224.6199718329999,224.62874466699998,224.62874466699998,224.62874466699998,224.62874466699998,224.879518458,right,0.2392250000000331,None,right,0.2392250000000331,0.7,1,224.890970208,224.89824254199993,224.89824254199993,224.89824254199993,224.89824254199993,226.88464549999992,226.88538508299996,,,,,,226.88548025,None,,,NA,NA,226.88561108299996,226.89568191699993,227.88573604199996,227.88021520799998,224.62874466699998,,,,744341,001,2025-08-07_15h17.29.304,regret_experiment,2024.2.4,117.74951198125122,1,0.5,0.2,0.7,2025-08-07 15h17.41.759165 -0700,
48,0,48,right,0.2450422910000043,None,None,,,48,0,48,0,227.88573604199996,,,,,,,,,227.88084354199998,227.88573604199996,0.0002590000000282089,228.87981983299994,49,1,0.5,0.2,0.7,228.880446292,228.8857157079999,228.8857157079999,228.8857157079999,228.8857157079999,229.13803558299992,right,0.2450422910000043,None,right,0.2450422910000043,0.7,1,229.149678333,229.15617424999994,229.15617424999994,229.15617424999994,229.15617424999994,231.14536212500002,231.1458111249999,,,,,,231.14586029199995,None,,,NA,NA,231.14593083299997,231.15023104199997,232.14528354200002,232.13302612500001,228.8857157079999,,,,744341,001,2025-08-07_15h17.29.304,regret_experiment,2024.2.4,117.74951198125122,1,0.5,0.2,0.7,2025-08-07 15h17.41.759165 -0700,
49,0,49,right,0.20531333300004917,None,None,,,49,0,49,0,232.14528354200002,,,,,,,,,232.13348424999992,232.14528354200002,-0.000583291999987523,233.12890725,50,1,0.5,0.2,0.7,233.12915354199993,233.134056333,233.134056333,233.134056333,233.134056333,233.34685849999994,right,0.20531333300004917,None,right,0.20531333300004917,0.7,1,233.35822566699994,233.36504816699994,233.36504816699994,233.36504816699994,233.36504816699994,235.351887208,235.352574667,,,,,,235.35266216699995,None,,,NA,NA,235.35278395799992,235.36200870799996,236.3522533329999,236.346664917,233.134056333,,,,744341,001,2025-08-07_15h17.29.304,regret_experiment,2024.2.4,117.74951198125122,1,0.5,0.2,0.7,2025-08-07 15h17.41.759165 -0700,
50,0,50,right,0.21922837500005699,None,None,,,50,0,50,0,236.3522533329999,,,,,,,,,236.34710420800002,236.3522533329999,-0.00036766699997770047,237.33593129199994,51,1,0.5,0.2,0.7,237.336224583,237.34570250000002,237.34570250000002,237.34570250000002,237.34570250000002,237.570521708,right,0.21922837500005699,None,right,0.21922837500005699,0.7,1,237.58353695799997,237.59146566699997,237.59146566699997,237.59146566699997,237.59146566699997,239.57957316699992,239.579991792,,,,,,239.58003383300002,None,,,NA,NA,239.58009770799993,239.585274917,240.5861179169999,240.5800147079999,237.34570250000002,,,,744341,001,2025-08-07_15h17.29.304,regret_experiment,2024.2.4,117.74951198125122,1,0.5,0.2,0.7,2025-08-07 15h17.41.759165 -0700,
51,0,51,right,0.21849495900005422,None,None,,,51,0,51,0,240.5861179169999,,,,,,,,,240.58088295799996,240.5861179169999,0.0008564169999090154,241.579265458,52,1,0.5,0.2,0.7,241.57954766699993,241.58507874999998,241.58507874999998,241.58507874999998,241.58507874999998,241.813680083,right,0.21849495900005422,None,right,0.21849495900005422,0.7,1,241.82553408299998,241.8334995419999,241.8334995419999,241.8334995419999,241.8334995419999,243.81846254200002,243.81905470799995,,,,,,243.81909291699992,None,,,NA,NA,243.819152875,243.82933166700002,244.820258417,244.81393137499992,241.58507874999998,,,,744341,001,2025-08-07_15h17.29.304,regret_experiment,2024.2.4,117.74951198125122,1,0.5,0.2,0.7,2025-08-07 15h17.41.759165 -0700,
52,0,52,right,0.5183435410000357,None,None,,,52,0,52,0,244.820258417,,,,,,,,,244.814836292,244.820258417,0.0012509590000036042,245.81318187499994,53,1,0.5,0.2,0.7,245.81421795799997,245.820786667,245.820786667,245.820786667,245.820786667,246.347471208,right,0.5183435410000357,None,right,0.5183435410000357,0.7,0,246.361130667,246.36934724999992,246.36934724999992,246.36934724999992,246.36934724999992,248.35238374999994,248.35293279199993,,,,,,248.352967583,None,,,NA,NA,248.353021958,248.36210679199996,249.351745167,249.34652741699995,245.820786667,,,,744341,001,2025-08-07_15h17.29.304,regret_experiment,2024.2.4,117.74951198125122,1,0.5,0.2,0.7,2025-08-07 15h17.41.759165 -0700,
53,0,53,right,0.21902804199999082,None,None,,,53,0,53,0,249.351745167,,,,,,,,,249.34688179199998,249.351745167,0.00999699999999848,250.335324625,54,1,0.5,0.2,0.7,250.335581208,250.35162470799992,250.35162470799992,250.35162470799992,250.35162470799992,250.58000845799995,right,0.21902804199999082,None,right,0.21902804199999082,0.7,0,250.59316691699996,250.60086829199997,250.60086829199997,250.60086829199997,250.60086829199997,252.58547733299997,252.58596183299994,,,,,,252.585999292,None,,,NA,NA,252.5861011249999,252.5960940829999,253.58474658299997,253.57907083299995,250.34464524999999,,,,744341,001,2025-08-07_15h17.29.304,regret_experiment,2024.2.4,117.74951198125122,1,0.5,0.2,0.7,2025-08-07 15h17.41.759165 -0700,
54,0,54,left,0.2242572500000506,None,None,,,54,0,54,0,253.58474658299997,,,,,,,,,253.5795163749999,253.58474658299997,0.0098700830000098,254.5701221669999,55,1,0.5,0.2,0.7,254.57040041699997,254.57938949999993,254.57938949999993,254.57938949999993,254.57938949999993,254.81370129200002,left,0.2242572500000506,None,left,0.2242572500000506,0.5,0,254.82794416699994,254.8353199999999,254.8353199999999,254.8353199999999,254.8353199999999,256.82008774999997,256.820656417,,,,,,256.820693042,None,,,NA,NA,256.82074349999994,256.829172792,257.81796999999995,257.812356625,254.57938949999993,,,,744341,001,2025-08-07_15h17.29.304,regret_experiment,2024.2.4,117.74951198125122,1,0.5,0.2,0.7,2025-08-07 15h17.41.759165 -0700,
55,0,55,right,0.2413692909999554,None,None,,,55,0,55,0,257.81796999999995,,,,,,,,,257.8128742079999,257.81796999999995,0.008399667000048794,258.81123891699997,56,1,0.5,0.2,0.7,258.811558,258.816840083,258.816840083,258.816840083,258.816840083,259.06329004199995,right,0.2413692909999554,None,right,0.2413692909999554,0.7,0,259.07639733299993,259.084222417,259.084222417,259.084222417,259.084222417,261.06920645799994,261.06975820799994,,,,,,261.069786917,None,,,NA,NA,261.0698491669999,261.07897245799995,262.068174042,262.062158125,258.816840083,,,,744341,001,2025-08-07_15h17.29.304,regret_experiment,2024.2.4,117.74951198125122,1,0.5,0.2,0.7,2025-08-07 15h17.41.759165 -0700,
56,0,56,right,0.2133352500000001,None,None,,,56,0,56,0,262.068174042,,,,,,,,,262.062531167,262.068174042,0.009336167000014939,263.0638258749999,57,1,0.5,0.2,0.7,263.06412049999994,263.069023667,263.069023667,263.069023667,263.069023667,263.2861527079999,right,0.2133352500000001,None,right,0.2133352500000001,0.7,1,263.30029649999994,263.307156417,263.307156417,263.307156417,263.307156417,265.296100875,265.297472042,,,,,,265.29759583299995,None,,,NA,NA,265.29772349999996,265.3032852079999,266.30185533299993,266.2962424169999,263.069023667,,,,744341,001,2025-08-07_15h17.29.304,regret_experiment,2024.2.4,117.74951198125122,1,0.5,0.2,0.7,2025-08-07 15h17.41.759165 -0700,
57,0,57,right,0.1720732079999152,None,None,,,57,0,57,0,266.30185533299993,,,,,,,,,266.296638208,266.30185533299993,0.004284332999986873,267.29622725,58,1,0.5,0.2,0.7,267.296454542,267.302052958,267.302052958,267.302052958,267.302052958,267.4795204579999,right,0.1720732079999152,None,right,0.1720732079999152,0.7,1,267.491234125,267.49844329199993,267.49844329199993,267.49844329199993,267.49844329199993,269.485388458,269.48611808299995,,,,,,269.486223958,None,,,NA,NA,269.486348583,269.4949876669999,270.483572083,270.478714417,267.302052958,,,,744341,001,2025-08-07_15h17.29.304,regret_experiment,2024.2.4,117.74951198125122,1,0.5,0.2,0.7,2025-08-07 15h17.41.759165 -0700,
58,0,58,right,0.19744220899997345,None,None,,,58,0,58,0,270.483572083,,,,,,,,,270.47900916699996,270.483572083,0.008989457999973638,271.46861149999995,59,1,0.5,0.2,0.7,271.468887375,271.48507441699996,271.48507441699996,271.48507441699996,271.48507441699996,271.686463958,right,0.19744220899997345,None,right,0.19744220899997345,0.7,0,271.699589167,271.706906583,271.706906583,271.706906583,271.706906583,273.694705292,273.69517333299996,,,,,,273.69522508299997,None,,,NA,NA,273.695291292,273.699868292,274.6946865829999,274.68488924999997,271.479122792,,,,744341,001,2025-08-07_15h17.29.304,regret_experiment,2024.2.4,117.74951198125122,1,0.5,0.2,0.7,2025-08-07 15h17.41.759165 -0700,
59,0,59,right,0.1976170830000683,None,None,,,59,0,59,0,274.6946865829999,,,,,,,,,274.6852101669999,274.6946865829999,-0.0004504999999426218,275.6795126669999,60,1,0.5,0.2,0.7,275.67986229199994,275.685625458,275.685625458,275.685625458,275.685625458,275.88684954199994,right,0.1976170830000683,None,right,0.1976170830000683,0.7,1,275.89913920799995,275.906714125,275.906714125,275.906714125,275.906714125,277.89513624999995,277.8957704999999,,,,,,277.8958174999999,None,,,NA,NA,277.8959004579999,277.90098629199997,278.936375,278.8849225419999,275.685625458,,,,744341,001,2025-08-07_15h17.29.304,regret_experiment,2024.2.4,117.74951198125122,1,0.5,0.2,0.7,2025-08-07 15h17.41.759165 -0700,
,,,,,,,,,,,,,,,,,,,,,,,,,,,,,,,,,,,,,,,,,,,,,,,,,,,,,,,,,,,,,,,,,,,N/A,278.925548167,278.936375,,,,,,,,,,,,
