thisN,thisTrialN,thisRepN,key_resp_1.keys,key_resp_1.rt,key_resp_1.duration,regret_key.keys,regret_key.rt,regret_key.duration,trials.thisRepN,trials.thisTrialN,trials.thisN,trials.thisIndex,thisRow.t,notes,begin_exp.started,begin.started,advance_key.started,begin_exp.stopped,advance_key.keys,advance_key.rt,advance_key.duration,Fixation.started,fixcross.started,etRecord.started,Fixation.stopped,trial_num,participant_cond,prob_left,prob_up,prob_right,Choice.started,tree1_img.started,tree2_img.started,tree3_img.started,key_resp_1.started,Choice.stopped,trials.key_resp_1.keys,trials.key_resp_1.rt,trials.key_resp_1.duration,choice_key,choice_rt,choice_prob,points,Feedback.started,appleImage.started,tree1.started,tree2.started,tree3.started,Feedback.stopped,RegretRating.started,regret_scale.started,regret_key.started,rtree1.started,rtree2.started,rtree3.started,RegretRating.stopped,trials.regret_key.keys,trials.regret_key.rt,trials.regret_key.duration,regret_rating,regret_rt,ITI.started,blank_screen.started,blank_screen.stopped,ITI.stopped,fixcross.stopped,avg_regret,EndScreen.started,end_display.started,participant,session,date,expName,psychopyVersion,frameRate,participant_cond,prob_left,prob_up,prob_right,expStart,
,,,,,,,,,,,,,,,0.035951958037912846,0.05427412502467632,0.05427412502467632,11.314084917015862,space,11.180789000005461,None,,,,,,1,0.5,0.2,0.7,,,,,,,,,,,,,,,,,,,,,,,,,,,,,,,,,,,,,,,,897793,001,2025-08-11_14h32.28.381,regret_experiment,2024.2.4,119.853957942485,1,0.5,0.2,0.7,2025-08-11 14h32.42.210414 -0700,
0,0,0,up,1.110123208956793,None,2,1.5899235830293037,None,0,0,0,0,11.887643416994251,,,,,,,,,11.31604020803934,11.887643416994251,0.001925957971252501,12.315514333022293,1,1,0.5,0.2,0.7,12.315833417000249,12.341574042045977,12.341574042045977,12.341574042045977,12.341574042045977,13.46124516701093,up,1.110123208956793,None,up,1.110123208956793,0.2,0,13.488106292032171,13.596633167006075,13.596633167006075,13.596633167006075,13.596633167006075,15.46546841703821,15.478117667022161,15.48774658300681,15.48774658300681,15.48774658300681,15.48774658300681,15.48774658300681,17.082827375037596,2,1.5899235830293037,None,2,1.5899235830293037,17.082951667020097,17.091969042026903,18.082144750049338,18.07614637503866,,,,,897793,001,2025-08-11_14h32.28.381,regret_experiment,2024.2.4,119.853957942485,1,0.5,0.2,0.7,2025-08-11 14h32.42.210414 -0700,
1,0,1,left,1.3437886249739677,None,None,,,1,0,1,0,18.082144750049338,,,,,,,,,18.076556792017072,18.082144750049338,-0.0006910830270498991,19.065617832995486,2,1,0.5,0.2,0.7,19.06594729202334,19.075663375027943,19.075663375027943,19.075663375027943,19.075663375027943,20.427323333045933,left,1.3437886249739677,None,left,1.3437886249739677,0.5,1,20.445620083017275,20.45543875003932,20.45543875003932,20.45543875003932,20.45543875003932,22.431853208050597,22.43230924999807,,,,,,22.432369417045265,None,,,NA,NA,22.43245412502438,22.442279958049767,23.431538792036008,23.425623457995243,19.075663375027943,,,,897793,001,2025-08-11_14h32.28.381,regret_experiment,2024.2.4,119.853957942485,1,0.5,0.2,0.7,2025-08-11 14h32.42.210414 -0700,
2,0,2,left,0.3784902500337921,None,None,,,2,0,2,0,23.431538792036008,,,,,,,,,23.42603016702924,23.431538792036008,-0.0008113340009003878,24.416108625009656,3,1,0.5,0.2,0.7,24.416391792008653,24.424769000033848,24.424769000033848,24.424769000033848,24.424769000033848,24.809994833020028,left,0.3784902500337921,None,left,0.3784902500337921,0.5,1,24.828315125021618,25.01971283304738,25.01971283304738,25.01971283304738,25.01971283304738,26.815496082999744,26.815795167000033,,,,,,26.815856500004884,None,,,NA,NA,26.815933417005,26.825373750005383,27.82606312504504,27.809664292028174,24.424769000033848,,,,897793,001,2025-08-11_14h32.28.381,regret_experiment,2024.2.4,119.853957942485,1,0.5,0.2,0.7,2025-08-11 14h32.42.210414 -0700,
3,0,3,left,0.34151691698934883,None,2,2.2099737499956973,None,3,0,3,0,27.82606312504504,,,,,,,,,27.810018167016096,27.82606312504504,0.010247750033158809,28.808960708032828,4,1,0.5,0.2,0.7,28.809224000026006,28.814645000034943,28.814645000034943,28.814645000034943,28.814645000034943,29.160529000044335,left,0.34151691698934883,None,left,0.34151691698934883,0.5,0,29.18138208304299,29.189508708019275,29.189508708019275,29.189508708019275,29.189508708019275,31.165698750002775,31.17766812501941,31.18611858302029,31.18611858302029,31.18611858302029,31.18611858302029,31.18611858302029,33.40048370801378,2,2.2099737499956973,None,2,2.2099737499956973,33.40066579199629,33.41368150000926,34.408743583015166,34.398512667045,28.814645000034943,,,,897793,001,2025-08-11_14h32.28.381,regret_experiment,2024.2.4,119.853957942485,1,0.5,0.2,0.7,2025-08-11 14h32.42.210414 -0700,
4,0,4,left,0.9282103750156239,None,3,0.40178575000027195,None,4,0,4,0,34.408743583015166,,,,,,,,,34.39923908299534,34.408743583015166,0.00824954197742045,35.39285441703396,5,1,0.5,0.2,0.7,35.39317116700113,35.399895667040255,35.399895667040255,35.399895667040255,35.399895667040255,36.33251945802476,left,0.9282103750156239,None,left,0.9282103750156239,0.5,0,36.350500208034646,36.35888712503947,36.35888712503947,36.35888712503947,36.35888712503947,38.34240820800187,38.35490958299488,38.36177245801082,38.36177245801082,38.36177245801082,38.36177245801082,38.36177245801082,38.76583554199897,3,0.40178575000027195,None,3,0.40178575000027195,38.7660211250186,38.775344541994855,39.76639587501995,39.75901895802235,35.399895667040255,,,,897793,001,2025-08-11_14h32.28.381,regret_experiment,2024.2.4,119.853957942485,1,0.5,0.2,0.7,2025-08-11 14h32.42.210414 -0700,
5,0,5,up,0.7621792919817381,None,3,1.2988396249711514,None,5,0,5,0,39.76639587501995,,,,,,,,,39.75963537499774,39.76639587501995,0.0004972089664079249,40.75893533299677,6,1,0.5,0.2,0.7,40.75919404200977,40.764933333033696,40.764933333033696,40.764933333033696,40.764933333033696,41.53284254204482,up,0.7621792919817381,None,up,0.7621792919817381,0.2,0,41.551796167041175,41.55960037501063,41.55960037501063,41.55960037501063,41.55960037501063,43.542369583039545,43.554664792027324,43.561404500040226,43.561404500040226,43.561404500040226,43.561404500040226,43.561404500040226,44.866884457995184,3,1.2988396249711514,None,3,1.2988396249711514,44.86701725004241,44.87586683302652,45.86673000000883,45.859644833020866,40.764933333033696,,,,897793,001,2025-08-11_14h32.28.381,regret_experiment,2024.2.4,119.853957942485,1,0.5,0.2,0.7,2025-08-11 14h32.42.210414 -0700,
6,0,6,right,0.31291158398380503,None,None,,,6,0,6,0,45.86673000000883,,,,,,,,,45.86016825004481,45.86673000000883,-0.00019512500148266554,46.859436958038714,7,1,0.5,0.2,0.7,46.85972516704351,46.867052000015974,46.867052000015974,46.867052000015974,46.867052000015974,47.18335104204016,right,0.31291158398380503,None,right,0.31291158398380503,0.7,1,47.20216716703726,47.21095650002826,47.21095650002826,47.21095650002826,47.21095650002826,49.19219550001435,49.19251883303514,,,,,,49.19259204203263,None,,,NA,NA,49.19266591704218,49.19790600001579,50.192017666995525,50.1815082920366,46.867052000015974,,,,897793,001,2025-08-11_14h32.28.381,regret_experiment,2024.2.4,119.853957942485,1,0.5,0.2,0.7,2025-08-11 14h32.42.210414 -0700,
7,0,7,right,0.30209804198239,None,None,,,7,0,7,0,50.192017666995525,,,,,,,,,50.181894750043284,50.192017666995525,-0.0005273330025374889,51.17562450002879,8,1,0.5,0.2,0.7,51.17586733301869,51.18173604202457,51.18173604202457,51.18173604202457,51.18173604202457,51.49390600004699,right,0.30209804198239,None,right,0.30209804198239,0.7,1,51.51196541701211,51.51995633303886,51.51995633303886,51.51995633303886,51.51995633303886,53.498047875007614,53.498455749999266,,,,,,53.49852391704917,None,,,NA,NA,53.498601375031285,53.50859862501966,54.49817720800638,54.492416458029766,51.18173604202457,,,,897793,001,2025-08-11_14h32.28.381,regret_experiment,2024.2.4,119.853957942485,1,0.5,0.2,0.7,2025-08-11 14h32.42.210414 -0700,
8,0,8,right,0.4349007499986328,None,None,,,8,0,8,0,54.49817720800638,,,,,,,,,54.49278575001517,54.49817720800638,-0.0002995419781655073,55.48235091700917,9,1,0.5,0.2,0.7,55.48279637499945,55.491947667032946,55.491947667032946,55.491947667032946,55.491947667032946,55.943693625042215,right,0.4349007499986328,None,right,0.4349007499986328,0.7,1,55.96306983300019,55.97043383301934,55.97043383301934,55.97043383301934,55.97043383301934,57.94799120799871,57.94814841699554,,,,,,57.94816841703141,None,,,NA,NA,57.948204792046454,57.959237583039794,58.95072587503819,58.94316374999471,55.491947667032946,,,,897793,001,2025-08-11_14h32.28.381,regret_experiment,2024.2.4,119.853957942485,1,0.5,0.2,0.7,2025-08-11 14h32.42.210414 -0700,
9,0,9,right,0.6480900829774328,None,None,,,9,0,9,0,58.95072587503819,,,,,,,,,58.943783583003096,58.95072587503819,0.002600541978608817,59.94227741699433,10,1,0.5,0.2,0.7,59.942548500024714,59.94777566700941,59.94777566700941,59.94777566700941,59.94777566700941,60.599285583011806,right,0.6480900829774328,None,right,0.6480900829774328,0.7,1,60.61783841700526,60.625789208046626,60.625789208046626,60.625789208046626,60.625789208046626,62.608511416998226,62.609038042020984,,,,,,62.60911608301103,None,,,NA,NA,62.60922770801699,62.6148989580106,63.608744083030615,63.59863695804961,59.94777566700941,,,,897793,001,2025-08-11_14h32.28.381,regret_experiment,2024.2.4,119.853957942485,1,0.5,0.2,0.7,2025-08-11 14h32.42.210414 -0700,
10,0,10,right,0.3884014160139486,None,1,0.37093933403957635,None,10,0,10,0,63.608744083030615,,,,,,,,,63.59917416702956,63.608744083030615,-0.0003710840246640146,64.59274858300341,11,1,0.5,0.2,0.7,64.59311700001126,64.59883637505118,64.59883637505118,64.59883637505118,64.59883637505118,64.99420950002968,right,0.3884014160139486,None,right,0.3884014160139486,0.7,0,65.01489958300954,65.02313725004205,65.02313725004205,65.02313725004205,65.02313725004205,66.99648212501779,67.01013958302792,67.01710625004489,67.01710625004489,67.01710625004489,67.01710625004489,67.01710625004489,67.39389512501657,1,0.37093933403957635,None,1,0.37093933403957635,67.39407566701993,67.40256029204465,68.39793612499489,68.39240645803511,64.59883637505118,,,,897793,001,2025-08-11_14h32.28.381,regret_experiment,2024.2.4,119.853957942485,1,0.5,0.2,0.7,2025-08-11 14h32.42.210414 -0700,
11,0,11,left,0.5520386249991134,None,2,0.5022640830138698,None,11,0,11,0,68.39793612499489,,,,,,,,,68.39273241703631,68.39793612499489,0.003958041954319924,69.38109458301915,12,1,0.5,0.2,0.7,69.38133583305171,69.39201816701097,69.39201816701097,69.39201816701097,69.39201816701097,69.94886262499494,left,0.5520386249991134,None,left,0.5520386249991134,0.5,0,69.96921770804329,69.97694462502841,69.97694462502841,69.97694462502841,69.97694462502841,71.95828258304391,71.96794529200997,71.97568975004833,71.97568975004833,71.97568975004833,71.97568975004833,71.97568975004833,72.48357937502442,2,0.5022640830138698,None,2,0.5022640830138698,72.48383433301933,72.50789220799925,,73.49224354204489,69.39201816701097,,,,897793,001,2025-08-11_14h32.28.381,regret_experiment,2024.2.4,119.853957942485,1,0.5,0.2,0.7,2025-08-11 14h32.42.210414 -0700,
12,0,12,right,1.6656432920135558,None,2,0.3245480000041425,None,12,0,12,0,73.49826283304719,,,,,,,,,73.49269354203716,73.49826283304719,0.008971167029812932,74.48149795801146,13,1,0.5,0.2,0.7,74.4822424580343,74.49042237503454,74.49042237503454,74.49042237503454,74.49042237503454,76.1611461249995,right,1.6656432920135558,None,right,1.6656432920135558,0.7,0,76.18962499999907,76.20540120801888,76.20540120801888,76.20540120801888,76.20540120801888,78.16623158304719,78.17739025002811,78.18642545799958,78.18642545799958,78.18642545799958,78.18642545799958,78.18642545799958,78.51484612503555,2,0.3245480000041425,None,2,0.3245480000041425,78.51503425004194,78.60059912502766,,79.52500408299966,74.49042237503454,,,,897793,001,2025-08-11_14h32.28.381,regret_experiment,2024.2.4,119.853957942485,1,0.5,0.2,0.7,2025-08-11 14h32.42.210414 -0700,
13,0,13,up,0.8027040419983678,None,1,1.5095250000013039,None,13,0,13,0,79.53094862500438,,,,,,,,,79.52548529201886,79.53094862500438,0.010551624989602715,80.51374066702556,14,1,0.5,0.2,0.7,80.51399133302039,80.52518562501064,80.52518562501064,80.52518562501064,80.52518562501064,81.34400170802837,up,0.8027040419983678,None,up,0.8027040419983678,0.2,0,81.36501700000372,81.37353987502865,81.37353987502865,81.37353987502865,81.37353987502865,83.36075729201548,83.36750933300937,83.37311879202025,83.37311879202025,83.37311879202025,83.37311879202025,83.37311879202025,84.8933882919955,1,1.5095250000013039,None,1,1.5095250000013039,84.8935280420119,84.90257425000891,85.8995635000174,85.89245237503201,80.52518562501064,,,,897793,001,2025-08-11_14h32.28.381,regret_experiment,2024.2.4,119.853957942485,1,0.5,0.2,0.7,2025-08-11 14h32.42.210414 -0700,
14,0,14,left,0.6965002499637194,None,3,0.924758541979827,None,14,0,14,0,85.8995635000174,,,,,,,,,85.89306729199598,85.8995635000174,-0.0003696659696288407,86.89256933302386,15,1,0.5,0.2,0.7,86.89282137504779,86.8988735830062,86.8988735830062,86.8988735830062,86.8988735830062,87.61096533300588,left,0.6965002499637194,None,left,0.6965002499637194,0.5,0,87.63370154204313,87.64310637500603,87.64310637500603,87.64310637500603,87.64310637500603,89.61428841704037,89.62893816700671,89.63884125003824,89.63884125003824,89.63884125003824,89.63884125003824,89.63884125003824,90.56628250004724,3,0.924758541979827,None,3,0.924758541979827,90.5664393750485,90.5802505420288,91.57451608299743,91.56349408300593,86.8988735830062,,,,897793,001,2025-08-11_14h32.28.381,regret_experiment,2024.2.4,119.853957942485,1,0.5,0.2,0.7,2025-08-11 14h32.42.210414 -0700,
15,0,15,up,0.5647416670108214,None,3,2.023950083006639,None,15,0,15,0,91.57451608299743,,,,,,,,,91.56393179204315,91.57451608299743,0.008185999991837889,92.55876658303896,16,1,0.5,0.2,0.7,92.55910662503447,92.56696854199981,92.56696854199981,92.56696854199981,92.56696854199981,93.14550816704286,up,0.5647416670108214,None,up,0.5647416670108214,0.2,0,93.16513300000224,93.18620066699805,93.18620066699805,93.18620066699805,93.18620066699805,95.14932175003923,95.16362016700441,95.17158833303256,95.17158833303256,95.17158833303256,95.17158833303256,95.17158833303256,97.2109914169996,3,2.023950083006639,None,3,2.023950083006639,97.21115625003586,97.22550070803845,98.2152231670334,98.20908220804995,92.56696854199981,,,,897793,001,2025-08-11_14h32.28.381,regret_experiment,2024.2.4,119.853957942485,1,0.5,0.2,0.7,2025-08-11 14h32.42.210414 -0700,
16,0,16,right,0.5374524170183577,None,3,0.6509756660088897,None,16,0,16,0,98.2152231670334,,,,,,,,,98.20958025002619,98.2152231670334,0.004207458987366408,99.20967050001491,17,1,0.5,0.2,0.7,99.21012850000989,99.22569562500576,99.22569562500576,99.22569562500576,99.22569562500576,99.77567570802057,right,0.5374524170183577,None,right,0.5374524170183577,0.7,0,99.79808679199778,99.80653724999866,99.80653724999866,99.80653724999866,99.80653724999866,101.78087166702608,101.7940412920434,101.80026849999558,101.80026849999558,101.80026849999558,101.80026849999558,101.80026849999558,102.46033250004984,3,0.6509756660088897,None,3,0.6509756660088897,102.46048000000883,102.46897837502183,103.46405641699675,103.45848608302185,99.22569562500576,,,,897793,001,2025-08-11_14h32.28.381,regret_experiment,2024.2.4,119.853957942485,1,0.5,0.2,0.7,2025-08-11 14h32.42.210414 -0700,
17,0,17,up,1.6029151660040952,None,3,1.2167423749924637,None,17,0,17,0,103.46405641699675,,,,,,,,,103.45881012501195,103.46405641699675,0.0036667080130428076,104.4472798750503,18,1,0.5,0.2,0.7,104.44741095800418,104.45838591700885,104.45838591700885,104.45838591700885,104.45838591700885,106.06547000003047,up,1.6029151660040952,None,up,1.6029151660040952,0.2,0,106.08595941704698,106.09521162504097,106.09521162504097,106.09521162504097,106.09521162504097,108.07652895804495,108.0904108750401,108.09861129202181,108.09861129202181,108.09861129202181,108.09861129202181,108.09861129202181,109.3293602920021,3,1.2167423749924637,None,3,1.2167423749924637,109.32949541701237,109.34221204201458,110.33235995803261,110.32580487499945,104.45838591700885,,,,897793,001,2025-08-11_14h32.28.381,regret_experiment,2024.2.4,119.853957942485,1,0.5,0.2,0.7,2025-08-11 14h32.42.210414 -0700,
18,0,18,left,0.4102231250144541,None,None,,,18,0,18,0,110.33235995803261,,,,,,,,,110.32638850004878,110.33235995803261,0.0029765000217594206,111.32585220801411,19,1,0.5,0.2,0.7,111.3265404580161,111.33308125002077,111.33308125002077,111.33308125002077,111.33308125002077,111.74963829200715,left,0.4102231250144541,None,left,0.4102231250144541,0.5,1,111.773954333039,111.78481529204873,111.78481529204873,111.78481529204873,111.78481529204873,113.75836600002367,113.75869612500537,,,,,,113.75875937502133,None,,,NA,NA,113.75888025003951,113.77459495799849,114.76795129204402,114.75977254204918,111.33308125002077,,,,897793,001,2025-08-11_14h32.28.381,regret_experiment,2024.2.4,119.853957942485,1,0.5,0.2,0.7,2025-08-11 14h32.42.210414 -0700,
19,0,19,left,0.23924479202833027,None,3,1.4283558340393938,None,19,0,19,0,114.76795129204402,,,,,,,,,114.76100295799552,114.76795129204402,0.0022389580262824893,115.75881950004259,20,1,0.5,0.2,0.7,115.75916137499735,115.76506545802113,115.76506545802113,115.76506545802113,115.76506545802113,116.01070762501331,left,0.23924479202833027,None,left,0.23924479202833027,0.5,0,116.03168054204434,116.05025070800912,116.05025070800912,116.05025070800912,116.05025070800912,118.0124947919976,118.02411650004797,118.03234687499935,118.03234687499935,118.03234687499935,118.03234687499935,118.03234687499935,119.46690354199382,3,1.4283558340393938,None,3,1.4283558340393938,119.46704170800513,119.49687908304622,,120.47501245804597,115.76506545802113,,,,897793,001,2025-08-11_14h32.28.381,regret_experiment,2024.2.4,119.853957942485,1,0.5,0.2,0.7,2025-08-11 14h32.42.210414 -0700,
20,0,20,right,0.675381291017402,None,None,,,20,0,20,0,120.4816569579998,,,,,,,,,120.47547266702168,120.4816569579998,0.008511791005730629,121.47394333302509,21,1,0.5,0.2,0.7,121.47446925000986,121.47951433301205,121.47951433301205,121.47951433301205,121.47951433301205,122.16222150000976,right,0.675381291017402,None,right,0.675381291017402,0.7,1,122.18520283303224,122.20517700002529,122.20517700002529,122.20517700002529,122.20517700002529,124.16325850004796,124.16372075001709,,,,,,124.16381291701691,None,,,NA,NA,124.16401370801032,124.1762922500493,125.16672162502073,125.15997004200472,,,,,897793,001,2025-08-11_14h32.28.381,regret_experiment,2024.2.4,119.853957942485,1,0.5,0.2,0.7,2025-08-11 14h32.42.210414 -0700,
21,0,21,right,0.33494162501301616,None,None,,,21,0,21,0,125.16672162502073,,,,,,,,,125.16060358303366,125.16672162502073,0.0028804169851355255,126.15858570800629,22,1,0.5,0.2,0.7,126.15885262499796,126.16407037503086,126.16407037503086,126.16407037503086,126.16407037503086,126.51016491703922,right,0.33494162501301616,None,right,0.33494162501301616,0.7,1,126.53049254202051,126.54600404202938,126.54600404202938,126.54600404202938,126.54600404202938,128.51473270804854,128.51507254200988,,,,,,128.5151265420136,None,,,NA,NA,128.51520745799644,128.53105266700732,,129.51528250001138,126.16407037503086,,,,897793,001,2025-08-11_14h32.28.381,regret_experiment,2024.2.4,119.853957942485,1,0.5,0.2,0.7,2025-08-11 14h32.42.210414 -0700,
22,0,22,right,0.3301902919774875,None,2,1.685124583018478,None,22,0,22,0,129.5253703329945,,,,,,,,,129.5157827080111,129.5253703329945,0.0006410409696400166,130.5085116670234,23,1,0.5,0.2,0.7,130.5087039580103,130.5133872500155,130.5133872500155,130.5133872500155,130.5133872500155,130.84956641704775,right,0.3301902919774875,None,right,0.3301902919774875,0.7,0,130.86891200003447,130.87579762504902,130.87579762504902,130.87579762504902,130.87579762504902,132.85792966705048,132.87024695804575,132.87847087503178,132.87847087503178,132.87847087503178,132.87847087503178,132.87847087503178,134.56664925004588,2,1.685124583018478,None,2,1.685124583018478,134.56681991700316,134.70505787502043,,135.5754959170008,130.5133872500155,,,,897793,001,2025-08-11_14h32.28.381,regret_experiment,2024.2.4,119.853957942485,1,0.5,0.2,0.7,2025-08-11 14h32.42.210414 -0700,
23,0,23,left,4.530213457997888,None,None,,,23,0,23,0,135.58142458304064,,,,,,,,,135.5759245000081,135.58142458304064,0.009189417003653944,136.57496887503657,24,1,0.5,0.2,0.7,136.57525783299934,136.58067408303032,136.58067408303032,136.58067408303032,136.58067408303032,141.11438083299436,left,4.530213457997888,None,left,4.530213457997888,0.5,1,141.1330227080034,141.14183483301895,141.14183483301895,141.14183483301895,141.14183483301895,143.12559012504062,143.12585245800437,,,,,,143.1259237920167,None,,,NA,NA,143.1260031250422,143.13135358301224,144.12769587500952,144.11601608304773,,,,,897793,001,2025-08-11_14h32.28.381,regret_experiment,2024.2.4,119.853957942485,1,0.5,0.2,0.7,2025-08-11 14h32.42.210414 -0700,
24,0,24,left,0.7016590419807471,None,None,,,24,0,24,0,144.12769587500952,,,,,,,,,144.1164406670141,144.12769587500952,0.0019300419953651726,145.11378875002265,25,1,0.5,0.2,0.7,145.1140492919949,145.12550991703756,145.12550991703756,145.12550991703756,145.12550991703756,145.83139050001046,left,0.7016590419807471,None,left,0.7016590419807471,0.5,1,145.8498879170511,145.85710270801792,145.85710270801792,145.85710270801792,145.85710270801792,147.84131416701712,147.84164970804704,,,,,,147.84170354204252,None,,,NA,NA,147.84181950002676,147.8465234170435,148.8428131249966,148.830017417029,145.12550991703756,,,,897793,001,2025-08-11_14h32.28.381,regret_experiment,2024.2.4,119.853957942485,1,0.5,0.2,0.7,2025-08-11 14h32.42.210414 -0700,
25,0,25,left,0.2619881669525057,None,2,0.998340249992907,None,25,0,25,0,148.8428131249966,,,,,,,,,148.83046779199503,148.8428131249966,0.0010854589636437595,149.82617583300453,26,1,0.5,0.2,0.7,149.826421167003,149.83259025000734,149.83259025000734,149.83259025000734,149.83259025000734,150.09875954204472,left,0.2619881669525057,None,left,0.2619881669525057,0.5,0,150.1186087920214,150.1261548330076,150.1261548330076,150.1261548330076,150.1261548330076,152.10884070803877,152.12142058304744,152.12900570803322,152.12900570803322,152.12900570803322,152.12900570803322,152.12900570803322,153.13169791700784,2,0.998340249992907,None,2,0.998340249992907,153.13180945802014,153.1403035420226,154.132705792028,154.1263282080181,149.83259025000734,,,,897793,001,2025-08-11_14h32.28.381,regret_experiment,2024.2.4,119.853957942485,1,0.5,0.2,0.7,2025-08-11 14h32.42.210414 -0700,
26,0,26,right,0.26463399996282533,None,2,2.4474477079929784,None,26,0,26,0,154.132705792028,,,,,,,,,154.12678175000474,154.132705792028,0.0009853750234469771,155.12524295801995,27,1,0.5,0.2,0.7,155.12548916699598,155.13084737502504,155.13084737502504,155.13084737502504,155.13084737502504,155.39814208302414,right,0.26463399996282533,None,right,0.26463399996282533,0.7,0,155.41891550004948,155.4269360420294,155.4269360420294,155.4269360420294,155.4269360420294,157.39897545799613,157.411949750036,157.4212547080242,157.4212547080242,157.4212547080242,157.4212547080242,157.4212547080242,159.88144804199692,2,2.4474477079929784,None,2,2.4474477079929784,159.88350279204315,159.8936654580175,160.89205650001531,160.88024204201065,155.13084737502504,,,,897793,001,2025-08-11_14h32.28.381,regret_experiment,2024.2.4,119.853957942485,1,0.5,0.2,0.7,2025-08-11 14h32.42.210414 -0700,
27,0,27,left,0.8666829579742625,None,None,,,27,0,27,0,160.89205650001531,,,,,,,,,160.8807200420415,160.89205650001531,0.009043833008036017,161.87567104201298,28,1,0.5,0.2,0.7,161.87592966703232,161.8820835830411,161.8820835830411,161.8820835830411,161.8820835830411,162.75127891701413,left,0.8666829579742625,None,left,0.8666829579742625,0.5,1,162.7731045000255,162.7831147920224,162.7831147920224,162.7831147920224,162.7831147920224,164.75873820803827,164.75907683302648,,,,,,164.75913129199762,None,,,NA,NA,164.75920125003904,164.76445216702996,165.75879308301955,165.74863620800897,161.8820835830411,,,,897793,001,2025-08-11_14h32.28.381,regret_experiment,2024.2.4,119.853957942485,1,0.5,0.2,0.7,2025-08-11 14h32.42.210414 -0700,
28,0,28,left,0.3275979579775594,None,3,0.23712549998890609,None,28,0,28,0,165.75879308301955,,,,,,,,,165.7490446669981,165.75879308301955,-0.00028912501875311136,166.74302466702648,29,1,0.5,0.2,0.7,166.74344291700982,166.74949712504167,166.74949712504167,166.74949712504167,166.74949712504167,167.08267800003523,left,0.3275979579775594,None,left,0.3275979579775594,0.5,0,167.1012296670233,167.1087798330118,167.1087798330118,167.1087798330118,167.1087798330118,169.09216808300698,169.1043558330275,169.11087183305062,169.11087183305062,169.11087183305062,169.11087183305062,169.11087183305062,169.3498187920195,3,0.23712549998890609,None,3,0.23712549998890609,169.34993641701294,169.35871295799734,170.35933016700437,170.34294920804678,166.74949712504167,,,,897793,001,2025-08-11_14h32.28.381,regret_experiment,2024.2.4,119.853957942485,1,0.5,0.2,0.7,2025-08-11 14h32.42.210414 -0700,
29,0,29,right,0.26230170897906646,None,None,,,29,0,29,0,170.35933016700437,,,,,,,,,170.34333300002618,170.35933016700437,0.009522249980363995,171.34318312502,30,1,0.5,0.2,0.7,171.3435837920406,171.3499407080235,171.3499407080235,171.3499407080235,171.3499407080235,171.61559733300237,right,0.26230170897906646,None,right,0.26230170897906646,0.7,1,171.63312083302299,171.64086187502835,171.64086187502835,171.64086187502835,171.64086187502835,173.61591937503545,173.61628920800285,,,,,,173.61635595804546,None,,,NA,NA,173.61642950004898,173.62544845801312,174.61647279199678,174.6095597500098,171.3499407080235,,,,897793,001,2025-08-11_14h32.28.381,regret_experiment,2024.2.4,119.853957942485,1,0.5,0.2,0.7,2025-08-11 14h32.42.210414 -0700,
30,0,30,right,0.715966583986301,None,None,,,30,0,30,0,174.61647279199678,,,,,,,,,174.61002204200486,174.61647279199678,0.00013391696847975254,175.60956591699505,31,1,0.5,0.2,0.7,175.60990304203006,175.61619675002294,175.61619675002294,175.61619675002294,175.61619675002294,176.34398475004127,right,0.715966583986301,None,right,0.715966583986301,0.7,0,176.3635654170066,176.37150541704614,176.37150541704614,176.37150541704614,176.37150541704614,178.34838920802576,178.34875891701085,,,,,,178.34881237504305,None,,,NA,NA,178.34888333303388,178.35876029200153,179.35013545805123,179.3428130830289,175.61619675002294,,,,897793,001,2025-08-11_14h32.28.381,regret_experiment,2024.2.4,119.853957942485,1,0.5,0.2,0.7,2025-08-11 14h32.42.210414 -0700,
31,0,31,left,0.2950637500034645,None,None,,,31,0,31,0,179.35013545805123,,,,,,,,,179.34338283300167,179.35013545805123,0.0013352500391192734,180.3424357920303,32,1,0.5,0.2,0.7,180.3426895000157,180.3484852919937,180.3484852919937,180.3484852919937,180.3484852919937,180.6511071670102,left,0.2950637500034645,None,left,0.2950637500034645,0.5,1,180.66823595802998,180.6770523750456,180.6770523750456,180.6770523750456,180.6770523750456,182.65877233300125,182.6592176250415,,,,,,182.6592865830171,None,,,NA,NA,182.6593644579989,182.6654506670311,183.65883112500887,183.64836824999657,180.3484852919937,,,,897793,001,2025-08-11_14h32.28.381,regret_experiment,2024.2.4,119.853957942485,1,0.5,0.2,0.7,2025-08-11 14h32.42.210414 -0700,
32,0,32,left,0.594938958005514,None,None,,,32,0,32,0,183.65883112500887,,,,,,,,,183.64882037503412,183.65883112500887,-0.0004106250125914812,184.64265733299544,33,1,0.5,0.2,0.7,184.64304104202893,184.64901154203108,184.64901154203108,184.64901154203108,184.64901154203108,185.25063983304426,left,0.594938958005514,None,left,0.594938958005514,0.5,0,185.26975200005108,185.27769787504803,185.27769787504803,185.27769787504803,185.27769787504803,187.25872708304087,187.25920516700717,,,,,,187.25929795805132,None,,,NA,NA,187.25940620800247,187.26541258301586,188.25877750001382,188.248541958048,184.64901154203108,,,,897793,001,2025-08-11_14h32.28.381,regret_experiment,2024.2.4,119.853957942485,1,0.5,0.2,0.7,2025-08-11 14h32.42.210414 -0700,
33,0,33,right,0.24992095801280811,None,None,,,33,0,33,0,188.25877750001382,,,,,,,,,188.24909391702386,188.25877750001382,-0.0005321250064298511,189.2430202080286,34,1,0.5,0.2,0.7,189.24346262501786,189.24976066703675,189.24976066703675,189.24976066703675,189.24976066703675,189.51007020799443,right,0.24992095801280811,None,right,0.24992095801280811,0.7,1,189.52861350000603,189.5378194579971,189.5378194579971,189.5378194579971,189.5378194579971,191.51383574999636,191.51410508301342,,,,,,191.51415770803578,None,,,NA,NA,191.514227125037,191.52590175002115,192.5165500830044,192.5095160829951,189.24976066703675,,,,897793,001,2025-08-11_14h32.28.381,regret_experiment,2024.2.4,119.853957942485,1,0.5,0.2,0.7,2025-08-11 14h32.42.210414 -0700,
34,0,34,left,0.5279316250234842,None,None,,,34,0,34,0,192.5165500830044,,,,,,,,,192.51003933302127,192.5165500830044,0.0024086670018732548,193.50916025001789,35,1,0.5,0.2,0.7,193.5094461250119,193.5152903330163,193.5152903330163,193.5152903330163,193.5152903330163,194.05017145804595,left,0.5279316250234842,None,left,0.5279316250234842,0.5,1,194.0677934580017,194.07573858305113,194.07573858305113,194.07573858305113,194.07573858305113,196.0587804170209,196.05908433301374,,,,,,196.05914283305174,None,,,NA,NA,196.05921695800498,196.06454779201886,197.05895491701085,197.04844174999744,193.5152903330163,,,,897793,001,2025-08-11_14h32.28.381,regret_experiment,2024.2.4,119.853957942485,1,0.5,0.2,0.7,2025-08-11 14h32.42.210414 -0700,
35,0,35,right,0.6958836659905501,None,None,,,35,0,35,0,197.05895491701085,,,,,,,,,197.04879679204896,197.05895491701085,-0.0001575410133227706,198.04238341702148,36,1,0.5,0.2,0.7,198.0426555420272,198.04844875005074,198.04844875005074,198.04844875005074,198.04844875005074,198.74901395803317,right,0.6958836659905501,None,right,0.6958836659905501,0.7,1,198.76994366705185,198.7780001250212,198.7780001250212,198.7780001250212,198.7780001250212,200.75886291702045,200.75926391704706,,,,,,200.7593148330343,None,,,NA,NA,200.75939058302902,200.76514308300102,201.76614041702123,201.75955583300674,198.04844875005074,,,,897793,001,2025-08-11_14h32.28.381,regret_experiment,2024.2.4,119.853957942485,1,0.5,0.2,0.7,2025-08-11 14h32.42.210414 -0700,
36,0,36,left,0.2698913750355132,None,None,,,36,0,36,0,201.76614041702123,,,,,,,,,201.76010629202938,201.76614041702123,0.0007807500078342855,202.75926170800813,37,1,0.5,0.2,0.7,202.759528124996,202.76647795800818,202.76647795800818,202.76647795800818,202.76647795800818,203.0437491670018,left,0.2698913750355132,None,left,0.2698913750355132,0.5,0,203.06175020802766,203.06894079199992,203.06894079199992,203.06894079199992,203.06894079199992,205.04703416704433,205.04727754200576,,,,,,205.04732879204676,None,,,NA,NA,205.04739141702885,205.05880045803497,206.04991212504683,206.0428527080221,202.76647795800818,,,,897793,001,2025-08-11_14h32.28.381,regret_experiment,2024.2.4,119.853957942485,1,0.5,0.2,0.7,2025-08-11 14h32.42.210414 -0700,
37,0,37,right,0.24438504199497402,None,None,,,37,0,37,0,206.04991212504683,,,,,,,,,206.04334991704673,206.04991212504683,0.002598041028250009,207.04254799999762,38,1,0.5,0.2,0.7,207.042808416998,207.04935408302117,207.04935408302117,207.04935408302117,207.04935408302117,207.31096587504726,right,0.24438504199497402,None,right,0.24438504199497402,0.7,1,207.32904395804508,207.33630204200745,207.33630204200745,207.33630204200745,207.33630204200745,209.31567741703475,209.316069625027,,,,,,209.31612987502012,None,,,NA,NA,209.3162023750483,209.3258992920164,210.3160659170244,210.30904562503565,207.04935408302117,,,,897793,001,2025-08-11_14h32.28.381,regret_experiment,2024.2.4,119.853957942485,1,0.5,0.2,0.7,2025-08-11 14h32.42.210414 -0700,
38,0,38,right,0.23229933303082362,None,None,,,38,0,38,0,210.3160659170244,,,,,,,,,210.30964708304964,210.3160659170244,-6.200000643730164e-05,211.29899362503784,39,1,0.5,0.2,0.7,211.29933879204327,211.31562262499938,211.31562262499938,211.31562262499938,211.31562262499938,211.5507108750171,right,0.23229933303082362,None,right,0.23229933303082362,0.7,0,211.57030237501021,211.57817375002196,211.57817375002196,211.57817375002196,211.57817375002196,213.5591470830259,213.55962766701123,,,,,,213.55970191699453,None,,,NA,NA,213.5598197079962,213.56611300003715,214.56680712499656,214.5596007500426,211.3088365830481,,,,897793,001,2025-08-11_14h32.28.381,regret_experiment,2024.2.4,119.853957942485,1,0.5,0.2,0.7,2025-08-11 14h32.42.210414 -0700,
39,0,39,left,0.29485537501750514,None,None,,,39,0,39,0,214.56680712499656,,,,,,,,,214.56012483302038,214.56680712499656,0.000393458001781255,215.5597708330024,40,1,0.5,0.2,0.7,215.56015062500956,215.56635662500048,215.56635662500048,215.56635662500048,215.56635662500048,215.86610654200194,left,0.29485537501750514,None,left,0.29485537501750514,0.5,1,215.88606925000204,215.89440704201115,215.89440704201115,215.89440704201115,215.89440704201115,217.8759475830011,217.87638141703792,,,,,,217.87645983300172,None,,,NA,NA,217.87654750002548,217.88299983303295,218.88219133304665,218.8757934170426,215.56635662500048,,,,897793,001,2025-08-11_14h32.28.381,regret_experiment,2024.2.4,119.853957942485,1,0.5,0.2,0.7,2025-08-11 14h32.42.210414 -0700,
40,0,40,left,0.23540641699219123,None,None,,,40,0,40,0,218.88219133304665,,,,,,,,,218.87621516699437,218.88219133304665,-0.0002725839731283486,219.8656945830444,41,1,0.5,0.2,0.7,219.86595850001322,219.87568774999818,219.87568774999818,219.87568774999818,219.87568774999818,220.11712237499887,left,0.23540641699219123,None,left,0.23540641699219123,0.5,1,220.13627770805033,220.14422087499406,220.14422087499406,220.14422087499406,220.14422087499406,222.12610941700405,222.12656020803843,,,,,,222.12663549999706,None,,,NA,NA,222.1267269999953,222.13264220801648,223.1329397080117,223.12609712500125,219.87568774999818,,,,897793,001,2025-08-11_14h32.28.381,regret_experiment,2024.2.4,119.853957942485,1,0.5,0.2,0.7,2025-08-11 14h32.42.210414 -0700,
41,0,41,left,0.4472167920321226,None,None,,,41,0,41,0,223.1329397080117,,,,,,,,,223.12661320803454,223.1329397080117,-5.1458016969263554e-05,224.1162873750436,42,1,0.5,0.2,0.7,224.11656054202467,224.1247496670112,224.1247496670112,224.1247496670112,224.1247496670112,224.57637883303687,left,0.4472167920321226,None,left,0.4472167920321226,0.5,1,224.59526854200521,224.6025838330388,224.6025838330388,224.6025838330388,224.6025838330388,226.58192666701507,226.58222312503494,,,,,,226.58227779204026,None,,,NA,NA,226.58234954200452,226.5921187500353,227.58346387499478,227.57622433302458,224.1247496670112,,,,897793,001,2025-08-11_14h32.28.381,regret_experiment,2024.2.4,119.853957942485,1,0.5,0.2,0.7,2025-08-11 14h32.42.210414 -0700,
42,0,42,left,0.3736126250005327,None,None,,,42,0,42,0,227.58346387499478,,,,,,,,,227.57677291700384,227.58346387499478,0.0011947500170208514,228.57627245801268,43,1,0.5,0.2,0.7,228.57657595799537,228.58291458303574,228.58291458303574,228.58291458303574,228.58291458303574,228.96052716701524,left,0.3736126250005327,None,left,0.3736126250005327,0.5,1,228.97856100002537,228.98755025002174,228.98755025002174,228.98755025002174,228.98755025002174,230.9646192920045,230.9649719580193,,,,,,230.96502333303215,None,,,NA,NA,230.9650927920011,230.97535841702484,231.96829950000392,231.9598387920414,228.58291458303574,,,,897793,001,2025-08-11_14h32.28.381,regret_experiment,2024.2.4,119.853957942485,1,0.5,0.2,0.7,2025-08-11 14h32.42.210414 -0700,
43,0,43,left,0.5195127920014784,None,None,,,43,0,43,0,231.96829950000392,,,,,,,,,231.96079416701104,231.96829950000392,0.0032853749580681324,232.95909687504172,44,1,0.5,0.2,0.7,232.95939729199745,232.96463933301857,232.96463933301857,232.96463933301857,232.96463933301857,233.49439416703535,left,0.5195127920014784,None,left,0.5195127920014784,0.5,1,233.5138846670161,233.52112300001318,233.52112300001318,233.52112300001318,233.52112300001318,235.49900512502063,235.49931837501936,,,,,,235.49937008303823,None,,,NA,NA,235.4994412920205,235.50880141701782,236.49846008303575,236.49249308300205,232.96463933301857,,,,897793,001,2025-08-11_14h32.28.381,regret_experiment,2024.2.4,119.853957942485,1,0.5,0.2,0.7,2025-08-11 14h32.42.210414 -0700,
44,0,44,left,0.4099851659848355,None,None,,,44,0,44,0,236.49846008303575,,,,,,,,,236.49291329202242,236.49846008303575,-0.0008587909978814423,237.49302712501958,45,1,0.5,0.2,0.7,237.49328749999404,237.5003269170411,237.5003269170411,237.5003269170411,237.5003269170411,237.91512820799835,left,0.4099851659848355,None,left,0.4099851659848355,0.5,1,237.9328970000497,237.94132920802804,237.94132920802804,237.94132920802804,237.94132920802804,239.91557750001084,239.9159343750216,,,,,,239.9159880420193,None,,,NA,NA,239.91606791701633,239.92553200002294,240.9161970000132,240.90959375002421,237.5003269170411,,,,897793,001,2025-08-11_14h32.28.381,regret_experiment,2024.2.4,119.853957942485,1,0.5,0.2,0.7,2025-08-11 14h32.42.210414 -0700,
45,0,45,left,0.2568709579645656,None,None,,,45,0,45,0,240.9161970000132,,,,,,,,,240.91026004200103,240.9161970000132,0.0002122910227626562,241.9090722920373,46,1,0.5,0.2,0.7,241.90934325003764,241.91517658304656,241.91517658304656,241.91517658304656,241.91517658304656,242.1783177080215,left,0.2568709579645656,None,left,0.2568709579645656,0.5,1,242.19654695800273,242.203958875034,242.203958875034,242.203958875034,242.203958875034,244.18222375004552,244.1825139170396,,,,,,244.1825657080044,None,,,NA,NA,244.1826338749961,244.1919552500476,245.18306975002633,245.17611470801057,241.91517658304656,,,,897793,001,2025-08-11_14h32.28.381,regret_experiment,2024.2.4,119.853957942485,1,0.5,0.2,0.7,2025-08-11 14h32.42.210414 -0700,
46,0,46,left,0.7649172500241548,None,None,,,46,0,46,0,245.18306975002633,,,,,,,,,245.17658212501556,245.18306975002633,0.0005128339980728924,246.17624812503345,47,1,0.5,0.2,0.7,246.17657558299834,246.18302370799938,246.18302370799938,246.18302370799938,246.18302370799938,246.9507024170016,left,0.7649172500241548,None,left,0.7649172500241548,0.5,1,246.9685790000367,246.9763235830469,246.9763235830469,246.9763235830469,246.9763235830469,248.95861754199723,248.9590637080255,,,,,,248.95912387501448,None,,,NA,NA,248.9592010829947,248.96516712504672,249.9666890000226,249.95937841699924,246.18302370799938,,,,897793,001,2025-08-11_14h32.28.381,regret_experiment,2024.2.4,119.853957942485,1,0.5,0.2,0.7,2025-08-11 14h32.42.210414 -0700,
47,0,47,left,0.3268405420240015,None,None,,,47,0,47,0,249.9666890000226,,,,,,,,,249.95984129200224,249.9666890000226,0.0006997499731369317,250.9593406250351,48,1,0.5,0.2,0.7,250.95981812500395,250.96711308299564,250.96711308299564,250.96711308299564,250.96711308299564,251.29899766703602,left,0.3268405420240015,None,left,0.3268405420240015,0.5,0,251.3203444580431,251.32807258301182,251.32807258301182,251.32807258301182,251.32807258301182,253.30928550002864,253.3095877080341,,,,,,253.3096396670444,None,,,NA,NA,253.30971312499605,253.31495600001654,254.30872850003652,254.29923166701337,,,,,897793,001,2025-08-11_14h32.28.381,regret_experiment,2024.2.4,119.853957942485,1,0.5,0.2,0.7,2025-08-11 14h32.42.210414 -0700,
48,0,48,right,0.37897483399137855,None,None,,,48,0,48,0,254.30872850003652,,,,,,,,,254.2997374170227,254.30872850003652,-0.0009059170261025429,255.29299829201773,49,1,0.5,0.2,0.7,255.29326683300314,255.29859850002686,255.29859850002686,255.29859850002686,255.29859850002686,255.68364495801507,right,0.37897483399137855,None,right,0.37897483399137855,0.7,1,255.7014729999937,255.70936179201817,255.70936179201817,255.70936179201817,255.70936179201817,257.6926921670092,257.69310100004077,,,,,,257.6931654170039,None,,,NA,NA,257.69324345799396,257.7093173750327,258.69869745802134,258.6924645830295,255.29859850002686,,,,897793,001,2025-08-11_14h32.28.381,regret_experiment,2024.2.4,119.853957942485,1,0.5,0.2,0.7,2025-08-11 14h32.42.210414 -0700,
49,0,49,left,0.5357409170246683,None,None,,,49,0,49,0,258.69869745802134,,,,,,,,,258.69283204199746,258.69869745802134,-0.00035541702527552843,259.6930696250056,50,1,0.5,0.2,0.7,259.69342620804673,259.6997909170459,259.6997909170459,259.6997909170459,259.6997909170459,260.2433089170372,left,0.5357409170246683,None,left,0.5357409170246683,0.5,0,260.26351312501356,260.27028595801676,260.27028595801676,260.27028595801676,260.27028595801676,262.24859450000804,262.2489709579968,,,,,,262.2490303750383,None,,,NA,NA,262.2491008750512,262.2586938330205,263.2498566250433,263.24285941704875,259.6997909170459,,,,897793,001,2025-08-11_14h32.28.381,regret_experiment,2024.2.4,119.853957942485,1,0.5,0.2,0.7,2025-08-11 14h32.42.210414 -0700,
50,0,50,right,0.47400529199512675,None,None,,,50,0,50,0,263.2498566250433,,,,,,,,,263.243430292001,263.2498566250433,0.0008326670504175127,264.2426777500077,51,1,0.5,0.2,0.7,264.2429140000022,264.2583339170087,264.2583339170087,264.2583339170087,264.2583339170087,264.7341098750476,right,0.47400529199512675,None,right,0.47400529199512675,0.7,1,264.7514860420488,264.75926250003977,264.75926250003977,264.75926250003977,264.75926250003977,266.7421118330094,266.74252958304714,,,,,,266.74258133303374,None,,,NA,NA,266.74265100003686,266.7481210420374,267.74275208299514,267.7310805420275,264.2583339170087,,,,897793,001,2025-08-11_14h32.28.381,regret_experiment,2024.2.4,119.853957942485,1,0.5,0.2,0.7,2025-08-11 14h32.42.210414 -0700,
51,0,51,left,0.377408166998066,None,None,,,51,0,51,0,267.74275208299514,,,,,,,,,267.73154658300336,267.74275208299514,0.00018133403500542045,268.7258173330338,52,1,0.5,0.2,0.7,268.7262500420329,268.7328403330175,268.7328403330175,268.7328403330175,268.7328403330175,269.11755045800237,left,0.377408166998066,None,left,0.377408166998066,0.5,0,269.13711820804747,269.1446877500275,269.1446877500275,269.1446877500275,269.1446877500275,271.1254782920005,271.1257818750455,,,,,,271.1258428330184,None,,,NA,NA,271.12591541704023,271.1305667080451,272.1253223330132,272.11396212503314,268.7328403330175,,,,897793,001,2025-08-11_14h32.28.381,regret_experiment,2024.2.4,119.853957942485,1,0.5,0.2,0.7,2025-08-11 14h32.42.210414 -0700,
52,0,52,right,0.2809865410090424,None,None,,,52,0,52,0,272.1253223330132,,,,,,,,,272.1143564170343,272.1253223330132,-0.0005114999949000776,273.1088678330416,53,1,0.5,0.2,0.7,273.10911966703134,273.11494716705056,273.11494716705056,273.11494716705056,273.11494716705056,273.41007758304477,right,0.2809865410090424,None,right,0.2809865410090424,0.7,0,273.43023587501375,273.4375698750373,273.4375698750373,273.4375698750373,273.4375698750373,275.41431658301735,275.4146104170359,,,,,,275.4146760000149,None,,,NA,NA,275.4147723329952,275.42540262499824,276.4153618750279,276.4090232080198,273.11494716705056,,,,897793,001,2025-08-11_14h32.28.381,regret_experiment,2024.2.4,119.853957942485,1,0.5,0.2,0.7,2025-08-11 14h32.42.210414 -0700,
53,0,53,left,0.36372020904673263,None,None,,,53,0,53,0,276.4153618750279,,,,,,,,,276.40953483304475,276.4153618750279,0.0006987910019233823,277.40967345802346,54,1,0.5,0.2,0.7,277.40997837501345,277.4167629170115,277.4167629170115,277.4167629170115,277.4167629170115,277.78331995802,left,0.36372020904673263,None,left,0.36372020904673263,0.5,1,277.8022564580315,277.8100321670063,277.8100321670063,277.8100321670063,277.8100321670063,279.7923060420435,279.7927200830309,,,,,,279.79278216703096,None,,,NA,NA,279.7928584580077,279.7990549580427,280.7924843750079,280.78210116701666,277.4167629170115,,,,897793,001,2025-08-11_14h32.28.381,regret_experiment,2024.2.4,119.853957942485,1,0.5,0.2,0.7,2025-08-11 14h32.42.210414 -0700,
54,0,54,left,0.23785691702505574,None,None,,,54,0,54,0,280.7924843750079,,,,,,,,,280.7825305830338,280.7924843750079,-0.0002685829531401396,281.7756447500433,55,1,0.5,0.2,0.7,281.7759106250014,281.7818237080355,281.7818237080355,281.7818237080355,281.7818237080355,282.02668166701915,left,0.23785691702505574,None,left,0.23785691702505574,0.5,1,282.0466353330412,282.05376162502216,282.05376162502216,282.05376162502216,282.05376162502216,284.03176233300474,284.03204720804933,,,,,,284.03209950000746,None,,,NA,NA,284.0321763330139,284.0419138330035,285.0330972080119,285.026040250028,281.7818237080355,,,,897793,001,2025-08-11_14h32.28.381,regret_experiment,2024.2.4,119.853957942485,1,0.5,0.2,0.7,2025-08-11 14h32.42.210414 -0700,
55,0,55,left,0.39598575001582503,None,None,,,55,0,55,0,285.0330972080119,,,,,,,,,285.02661466703285,285.0330972080119,0.0010121659724973142,286.02577429200755,56,1,0.5,0.2,0.7,286.0260184170329,286.03142425004626,286.03142425004626,286.03142425004626,286.03142425004626,286.4329237920465,left,0.39598575001582503,None,left,0.39598575001582503,0.5,0,286.4517085420084,286.45942104200367,286.45942104200367,286.45942104200367,286.45942104200367,288.4423413750483,288.44275874999585,,,,,,288.44283712503966,None,,,NA,NA,288.442918417044,288.4491549580125,289.4474341250025,289.44184245803626,286.03142425004626,,,,897793,001,2025-08-11_14h32.28.381,regret_experiment,2024.2.4,119.853957942485,1,0.5,0.2,0.7,2025-08-11 14h32.42.210414 -0700,
56,0,56,right,0.45709649997297674,None,None,,,56,0,56,0,289.4474341250025,,,,,,,,,289.44220904202666,289.4474341250025,-0.0006524999625980854,290.4308347920305,57,1,0.5,0.2,0.7,290.4310855829972,290.44194954202976,290.44194954202976,290.44194954202976,290.44194954202976,290.9100189169985,right,0.45709649997297674,None,right,0.45709649997297674,0.7,0,290.9299779580324,290.93751462502405,290.93751462502405,290.93751462502405,290.93751462502405,292.9148030829965,292.9150995000382,,,,,,292.91514970804565,None,,,NA,NA,292.91521983302664,292.92631075001555,293.9166282500373,293.90946858300595,290.44194954202976,,,,897793,001,2025-08-11_14h32.28.381,regret_experiment,2024.2.4,119.853957942485,1,0.5,0.2,0.7,2025-08-11 14h32.42.210414 -0700,
57,0,57,left,0.31963566603371873,None,None,,,57,0,57,0,293.9166282500373,,,,,,,,,293.91001437499654,293.9166282500373,0.0015023750020191073,294.9096766250441,58,1,0.5,0.2,0.7,294.9100687080063,294.9169564170297,294.9169564170297,294.9169564170297,294.9169564170297,295.24323508300586,left,0.31963566603371873,None,left,0.31963566603371873,0.5,1,295.2617753749946,295.26905395800713,295.26905395800713,295.26905395800713,295.26905395800713,297.248691292014,297.2489919170039,,,,,,297.2490527080372,None,,,NA,NA,297.2491270000464,297.2586715000216,298.24946850002743,298.2426511250087,294.9169564170297,,,,897793,001,2025-08-11_14h32.28.381,regret_experiment,2024.2.4,119.853957942485,1,0.5,0.2,0.7,2025-08-11 14h32.42.210414 -0700,
58,0,58,left,0.3531096670194529,None,None,,,58,0,58,0,298.24946850002743,,,,,,,,,298.2430298330146,298.24946850002743,0.0004210420302115381,299.24326308304444,59,1,0.5,0.2,0.7,299.2438445830485,299.25121412501903,299.25121412501903,299.25121412501903,299.25121412501903,299.6100568330148,left,0.3531096670194529,None,left,0.3531096670194529,0.5,0,299.630023833015,299.637855708017,299.637855708017,299.637855708017,299.637855708017,301.6144215000095,301.61470554204425,,,,,,301.6147584580467,None,,,NA,NA,301.61483204201795,301.6253347080201,302.61629445804283,302.6095376670128,299.25121412501903,,,,897793,001,2025-08-11_14h32.28.381,regret_experiment,2024.2.4,119.853957942485,1,0.5,0.2,0.7,2025-08-11 14h32.42.210414 -0700,
59,0,59,right,0.31111175002297387,None,None,,,59,0,59,0,302.61629445804283,,,,,,,,,302.61001408303855,302.61629445804283,0.0015528330113738775,303.609571167035,60,1,0.5,0.2,0.7,303.6098407920217,303.61615495802835,303.61615495802835,303.61615495802835,303.61615495802835,303.94422137504444,right,0.31111175002297387,None,right,0.31111175002297387,0.7,1,303.96282333304407,303.97025679203216,303.97025679203216,303.97025679203216,303.97025679203216,305.9472796250484,305.94774704199517,,,,,,305.9478121250286,None,,,NA,NA,305.9479471670347,305.9587023330387,306.9859397500404,306.9427470000228,303.61615495802835,,,,897793,001,2025-08-11_14h32.28.381,regret_experiment,2024.2.4,119.853957942485,1,0.5,0.2,0.7,2025-08-11 14h32.42.210414 -0700,
,,,,,,,,,,,,,,,,,,,,,,,,,,,,,,,,,,,,,,,,,,,,,,,,,,,,,,,,,,,,,,,,,,,N/A,306.97787216701545,306.9859397500404,,,,,,,,,,,,
