thisN,thisTrialN,thisRepN,key_resp_1.keys,key_resp_1.rt,key_resp_1.duration,regret_key.keys,regret_key.rt,regret_key.duration,trials.thisRepN,trials.thisTrialN,trials.thisN,trials.thisIndex,thisRow.t,notes,begin_exp.started,begin.started,advance_key.started,begin_exp.stopped,advance_key.keys,advance_key.rt,advance_key.duration,Fixation.started,fixcross.started,etRecord.started,Fixation.stopped,trial_num,participant_cond,prob_left,prob_up,prob_right,Choice.started,tree1_img.started,tree2_img.started,tree3_img.started,key_resp_1.started,Choice.stopped,trials.key_resp_1.keys,trials.key_resp_1.rt,trials.key_resp_1.duration,choice_key,choice_rt,choice_prob,points,Feedback.started,appleImage.started,tree1.started,tree2.started,tree3.started,Feedback.stopped,regret_rating,regret_rt,RegretRating.started,RegretRating.stopped,trials.regret_key.keys,ITI.started,blank_screen.started,blank_screen.stopped,ITI.stopped,fixcross.stopped,regret_scale.started,regret_key.started,rtree1.started,rtree2.started,rtree3.started,trials.regret_key.rt,trials.regret_key.duration,avg_regret,EndScreen.started,end_display.started,participant,session,date,expName,psychopyVersion,frameRate,participant_cond,prob_left,prob_up,prob_right,expStart,
,,,,,,,,,,,,,,,0.010407207999378443,0.02304962504422292,0.02304962504422292,4.400822708033957,space,4.37076654197881,None,,,,,,1,0.5,0.7,0.2,,,,,,,,,,,,,,,,,,,,,,,,,,,,,,,,,,,,,,,,922169,001,2025-08-12_11h43.30.266,regret_experiment,2024.2.4,118.6136427426674,1,0.5,0.7,0.2,2025-08-12 11h43.36.929075 -0700,
0,0,0,up,1.9469971249927767,None,None,,,0,0,0,0,4.9410017500049435,,,,,,,,,4.405198583030142,4.9410017500049435,0.00429583404911682,5.4055755830486305,1,1,0.5,0.7,0.2,5.405867666006088,5.416666541015729,5.416666541015729,5.416666541015729,5.416666541015729,7.369054416019935,up,1.9469971249927767,None,up,1.9469971249927767,0.7,1,7.39640591602074,7.563033875019755,7.563033875019755,7.563033875019755,7.563033875019755,9.369606750027742,NA,NA,9.369854458025657,9.369919874996413,None,9.370017083012499,9.381923166045453,10.371283915999811,10.365660416020546,,,,,,,,,,,,922169,001,2025-08-12_11h43.30.266,regret_experiment,2024.2.4,118.6136427426674,1,0.5,0.7,0.2,2025-08-12 11h43.36.929075 -0700,
1,0,1,right,1.4354254999780096,None,2,3.6424308749847114,None,1,0,1,0,10.371283915999811,,,,,,,,,10.366016832995228,10.371283915999811,0.0013580000377260149,11.356427125050686,2,1,0.5,0.7,0.2,11.356679624994285,11.365540833037812,11.365540833037812,11.365540833037812,11.365540833037812,12.807027208036743,right,1.4354254999780096,None,right,1.4354254999780096,0.2,0,12.831525916000828,12.840862833021674,12.840862833021674,12.840862833021674,12.840862833021674,14.816529666015413,2,3.6424308749847114,14.829583625018131,18.490192916011438,2,18.49036212504143,18.516897416033316,,19.499412208038848,11.365540833037812,14.842148250027094,14.842148250027094,14.842148250027094,14.842148250027094,14.842148250027094,3.6424308749847114,None,,,,922169,001,2025-08-12_11h43.30.266,regret_experiment,2024.2.4,118.6136427426674,1,0.5,0.7,0.2,2025-08-12 11h43.36.929075 -0700,
2,0,2,up,0.36654750001616776,None,None,,,2,0,2,0,19.50713075004751,,,,,,,,,19.500021415995434,19.50713075004751,0.009752249985467643,20.499207250017207,3,1,0.5,0.7,0.2,20.49953983305022,20.50598054099828,20.50598054099828,20.50598054099828,20.50598054099828,20.882144541013986,up,0.36654750001616776,None,up,0.36654750001616776,0.7,1,20.901720833033323,20.91008620802313,20.91008620802313,20.91008620802313,20.91008620802313,22.882933375018183,NA,NA,22.88323350000428,22.883290124998894,None,22.883375916047953,22.89946341601899,23.888003916013986,23.882461666013114,,,,,,,,,,,,922169,001,2025-08-12_11h43.30.266,regret_experiment,2024.2.4,118.6136427426674,1,0.5,0.7,0.2,2025-08-12 11h43.36.929075 -0700,
3,0,3,up,0.7755321250297129,None,1,2.981296292040497,None,3,0,3,0,23.888003916013986,,,,,,,,,23.8828378750477,23.888003916013986,-0.0004729580250568688,24.87227258301573,4,1,0.5,0.7,0.2,24.872543000034057,24.882639750023372,24.882639750023372,24.882639750023372,24.882639750023372,25.666886583028827,up,0.7755321250297129,None,up,0.7755321250297129,0.7,0,25.688996333046816,25.697663041006308,25.697663041006308,25.697663041006308,25.697663041006308,27.670468666008674,1,2.981296292040497,27.682267166033853,30.67501516599441,1,30.675201583013404,30.699336416029837,,31.68271075002849,24.882639750023372,27.69198441604385,27.69198441604385,27.69198441604385,27.69198441604385,27.69198441604385,2.981296292040497,None,,,,922169,001,2025-08-12_11h43.30.266,regret_experiment,2024.2.4,118.6136427426674,1,0.5,0.7,0.2,2025-08-12 11h43.36.929075 -0700,
4,0,4,up,0.31899495801189914,None,2,0.5054951250203885,None,4,0,4,0,31.68903395801317,,,,,,,,,31.68323850003071,31.68903395801317,0.008126957982312888,32.67312483303249,5,1,0.5,0.7,0.2,32.673382458044216,32.682466833037324,32.682466833037324,32.682466833037324,32.682466833037324,33.00416662503267,up,0.31899495801189914,None,up,0.31899495801189914,0.7,0,33.01913545804564,33.02655708300881,33.02655708300881,33.02655708300881,33.02655708300881,35.00455237500137,2,0.5054951250203885,35.01717125001596,35.534098333038855,2,35.534221125009935,35.5429927080404,36.54934791603591,36.533794291026425,32.682466833037324,35.02419429103611,35.02419429103611,35.02419429103611,35.02419429103611,35.02419429103611,0.5054951250203885,None,,,,922169,001,2025-08-12_11h43.30.266,regret_experiment,2024.2.4,118.6136427426674,1,0.5,0.7,0.2,2025-08-12 11h43.36.929075 -0700,
5,0,5,left,0.3458587499917485,None,None,,,5,0,5,0,36.54934791603591,,,,,,,,,36.53428908303613,36.54934791603591,0.00013887498062103987,37.533159458020236,6,1,0.5,0.7,0.2,37.533399750012904,37.53887237503659,37.53887237503659,37.53887237503659,37.53887237503659,37.90199025004404,left,0.3458587499917485,None,left,0.3458587499917485,0.5,1,37.923085707996506,37.930763750046026,37.930763750046026,37.930763750046026,37.930763750046026,39.90425645804498,NA,NA,39.90451658301754,39.90457175002666,None,39.90465004101861,39.91648479102878,40.915831958001945,40.902668333030306,37.53887237503659,,,,,,,,,,,922169,001,2025-08-12_11h43.30.266,regret_experiment,2024.2.4,118.6136427426674,1,0.5,0.7,0.2,2025-08-12 11h43.36.929075 -0700,
6,0,6,left,0.31170887500047684,None,2,0.5425030409824103,None,6,0,6,0,40.915831958001945,,,,,,,,,40.90298387501389,40.915831958001945,0.011240958992857486,41.90004541602684,7,1,0.5,0.7,0.2,41.900310083001386,41.90587466600118,41.90587466600118,41.90587466600118,41.90587466600118,42.22547658300027,left,0.31170887500047684,None,left,0.31170887500047684,0.5,0,42.24658845801605,42.25379454100039,42.25379454100039,42.25379454100039,42.25379454100039,44.232765583030414,2,0.5425030409824103,44.24445979105076,44.80050166603178,2,44.80063825001707,44.80906150001101,45.805938916048035,45.79975537501741,41.90587466600118,44.251519500045106,44.251519500045106,44.251519500045106,44.251519500045106,44.251519500045106,0.5425030409824103,None,,,,922169,001,2025-08-12_11h43.30.266,regret_experiment,2024.2.4,118.6136427426674,1,0.5,0.7,0.2,2025-08-12 11h43.36.929075 -0700,
7,0,7,up,0.30914504203246906,None,None,,,7,0,7,0,45.805938916048035,,,,,,,,,45.80014554102672,45.805938916048035,-0.0004279160057194531,46.79984783299733,8,1,0.5,0.7,0.2,46.80020041600801,46.806754583027214,46.806754583027214,46.806754583027214,46.806754583027214,47.123844415997155,up,0.30914504203246906,None,up,0.30914504203246906,0.7,1,47.141189000045415,47.14939008303918,47.14939008303918,47.14939008303918,47.14939008303918,49.13253604102647,NA,NA,49.132805666013155,49.132860583020374,None,49.13293087499915,49.138053750037216,50.137886375014205,50.13250083301682,46.806754583027214,,,,,,,,,,,922169,001,2025-08-12_11h43.30.266,regret_experiment,2024.2.4,118.6136427426674,1,0.5,0.7,0.2,2025-08-12 11h43.36.929075 -0700,
8,0,8,up,0.30304400000022724,None,None,,,8,0,8,0,50.137886375014205,,,,,,,,,50.132723000016995,50.137886375014205,-0.0001693330123089254,51.121442958014086,9,1,0.5,0.7,0.2,51.121663416037336,51.13218237500405,51.13218237500405,51.13218237500405,51.13218237500405,51.45276108302642,up,0.30304400000022724,None,up,0.30304400000022724,0.7,1,51.474911708035506,51.48514000000432,51.48514000000432,51.48514000000432,51.48514000000432,53.45515837502899,NA,NA,53.455660875013564,53.45572937501129,None,53.45590737502789,53.4650474160444,54.45737141603604,54.449878166022245,51.13218237500405,,,,,,,,,,,922169,001,2025-08-12_11h43.30.266,regret_experiment,2024.2.4,118.6136427426674,1,0.5,0.7,0.2,2025-08-12 11h43.36.929075 -0700,
9,0,9,right,0.27251387503929436,None,None,,,9,0,9,0,54.45737141603604,,,,,,,,,54.45063962502172,54.45737141603604,0.0016274999943561852,55.44012945803115,10,1,0.5,0.7,0.2,55.44039116601925,55.448920125025325,55.448920125025325,55.448920125025325,55.448920125025325,55.73555149999447,right,0.27251387503929436,None,right,0.27251387503929436,0.2,1,55.7596357500297,55.76999391603749,55.76999391603749,55.76999391603749,55.76999391603749,57.73958608304383,NA,NA,57.73990633303765,57.739961875020526,None,57.74004612502176,57.7492773749982,58.749664500006475,58.73330125003122,55.448920125025325,,,,,,,,,,,922169,001,2025-08-12_11h43.30.266,regret_experiment,2024.2.4,118.6136427426674,1,0.5,0.7,0.2,2025-08-12 11h43.36.929075 -0700,
10,0,10,up,0.3193270830088295,None,None,,,10,0,10,0,58.749664500006475,,,,,,,,,58.73367979103932,58.749664500006475,0.009700666996650398,59.732530541019514,11,1,0.5,0.7,0.2,59.732807958032936,59.73793175001629,59.73793175001629,59.73793175001629,59.73793175001629,60.06713450001553,up,0.3193270830088295,None,up,0.3193270830088295,0.7,1,60.08577733300626,60.09505875001196,60.09505875001196,60.09505875001196,60.09505875001196,62.07154120801715,NA,NA,62.07192645804025,62.07199050002964,None,62.07208641601028,62.08262125001056,63.0725190830417,63.06635008304147,59.73793175001629,,,,,,,,,,,922169,001,2025-08-12_11h43.30.266,regret_experiment,2024.2.4,118.6136427426674,1,0.5,0.7,0.2,2025-08-12 11h43.36.929075 -0700,
11,0,11,up,0.3357137499842793,None,1,1.7939034590381198,None,11,0,11,0,63.0725190830417,,,,,,,,,63.06677920802031,63.0725190830417,0.0005338329938240349,64.06725979101611,12,1,0.5,0.7,0.2,64.06750941602513,64.0740855410113,64.0740855410113,64.0740855410113,64.0740855410113,64.41646833304549,up,0.3357137499842793,None,up,0.3357137499842793,0.7,0,64.44235462503275,64.45423925004434,64.45423925004434,64.45423925004434,64.45423925004434,66.42159924999578,1,1.7939034590381198,66.43571312504355,68.2498870830168,1,68.24998708302155,68.32765695801936,,69.25448862503981,64.0740855410113,66.4476620000205,66.4476620000205,66.4476620000205,66.4476620000205,66.4476620000205,1.7939034590381198,None,,,,922169,001,2025-08-12_11h43.30.266,regret_experiment,2024.2.4,118.6136427426674,1,0.5,0.7,0.2,2025-08-12 11h43.36.929075 -0700,
12,0,12,left,0.5049756660009734,None,None,,,12,0,12,0,69.26585445803357,,,,,,,,,69.25491600000532,69.26585445803357,0.004997624957468361,70.24949033302255,13,1,0.5,0.7,0.2,70.24975658301264,70.25520425004652,70.25520425004652,70.25520425004652,70.25520425004652,70.76951512502274,left,0.5049756660009734,None,left,0.5049756660009734,0.5,1,70.78953929099953,70.79881220799871,70.79881220799871,70.79881220799871,70.79881220799871,72.7718556660111,NA,NA,72.77230120799504,72.77235462504905,None,72.77242704102537,72.78252108301967,73.77392470801715,73.76711154100485,70.25520425004652,,,,,,,,,,,922169,001,2025-08-12_11h43.30.266,regret_experiment,2024.2.4,118.6136427426674,1,0.5,0.7,0.2,2025-08-12 11h43.36.929075 -0700,
13,0,13,up,0.28368575003696606,None,None,,,13,0,13,0,73.77392470801715,,,,,,,,,73.76766604103614,73.77392470801715,0.0016094580059871078,74.76675270800479,14,1,0.5,0.7,0.2,74.76708783302456,74.77355729101691,74.77355729101691,74.77355729101691,74.77355729101691,75.06793900002958,up,0.28368575003696606,None,up,0.28368575003696606,0.7,1,75.08614170801593,75.09371729101986,75.09371729101986,75.09371729101986,75.09371729101986,77.0714245000272,NA,NA,77.07217129104538,77.07225212501362,None,77.0723633330199,77.08270533301402,78.07335070800036,78.06684604100883,74.77355729101691,,,,,,,,,,,922169,001,2025-08-12_11h43.30.266,regret_experiment,2024.2.4,118.6136427426674,1,0.5,0.7,0.2,2025-08-12 11h43.36.929075 -0700,
14,0,14,left,0.3121401669923216,None,3,0.43278745794668794,None,14,0,14,0,78.07335070800036,,,,,,,,,78.06747283303412,78.07335070800036,0.0010762499878183007,79.06641820800724,15,1,0.5,0.7,0.2,79.06665983301355,79.07320454099681,79.07320454099681,79.07320454099681,79.07320454099681,79.38880662503652,left,0.3121401669923216,None,left,0.3121401669923216,0.5,0,79.40522329101805,79.41298670804827,79.41298670804827,79.41298670804827,79.41298670804827,81.38916458300082,3,0.43278745794668794,81.40077075001318,81.85054212500108,3,81.85065962502267,81.85892287502065,82.85771716601448,82.85029791604029,79.07320454099681,81.40794208302395,81.40794208302395,81.40794208302395,81.40794208302395,81.40794208302395,0.43278745794668794,None,,,,922169,001,2025-08-12_11h43.30.266,regret_experiment,2024.2.4,118.6136427426674,1,0.5,0.7,0.2,2025-08-12 11h43.36.929075 -0700,
15,0,15,right,0.3365596249932423,None,3,0.3078856250504032,None,15,0,15,0,82.85771716601448,,,,,,,,,82.85086812503869,82.85771716601448,0.0002757500042207539,83.8500817080494,16,1,0.5,0.7,0.2,83.85041695804102,83.85738625004888,83.85738625004888,83.85738625004888,83.85738625004888,84.20031920803012,right,0.3365596249932423,None,right,0.3365596249932423,0.2,0,84.21884533303091,84.22626150003634,84.22626150003634,84.22626150003634,84.22626150003634,86.2046362500405,3,0.3078856250504032,86.21509979100665,86.53379766602302,3,86.5338945830008,86.53911716601579,87.53913279104745,87.53298100002576,83.85738625004888,86.22188650001772,86.22188650001772,86.22188650001772,86.22188650001772,86.22188650001772,0.3078856250504032,None,,,,922169,001,2025-08-12_11h43.30.266,regret_experiment,2024.2.4,118.6136427426674,1,0.5,0.7,0.2,2025-08-12 11h43.36.929075 -0700,
16,0,16,up,0.3828352500568144,None,None,,,16,0,16,0,87.53913279104745,,,,,,,,,87.533385000017,87.53913279104745,-0.0004562499816529453,88.53295820800122,17,1,0.5,0.7,0.2,88.5331995000015,88.53907075000461,88.53907075000461,88.53907075000461,88.53907075000461,88.92398175003473,up,0.3828352500568144,None,up,0.3828352500568144,0.7,1,88.9436317080399,88.95109783305088,88.95109783305088,88.95109783305088,88.95109783305088,90.93278729100712,NA,NA,90.93331454100553,90.93338766600937,None,90.9334663330228,90.93952929100487,91.94030437502079,91.93277600000147,88.53907075000461,,,,,,,,,,,922169,001,2025-08-12_11h43.30.266,regret_experiment,2024.2.4,118.6136427426674,1,0.5,0.7,0.2,2025-08-12 11h43.36.929075 -0700,
17,0,17,up,0.2784494170336984,None,None,,,17,0,17,0,91.94030437502079,,,,,,,,,91.93317308300175,91.94030437502079,-0.0002363340463489294,92.93300845799968,18,1,0.5,0.7,0.2,92.93330912501551,92.93931812501978,92.93931812501978,92.93931812501978,92.93931812501978,93.23551229102304,up,0.2784494170336984,None,up,0.2784494170336984,0.7,1,93.25415341602638,93.26204412500374,93.26204412500374,93.26204412500374,93.26204412500374,95.23859712504782,NA,NA,95.23898183304118,95.23904304101598,None,95.23913566599367,95.24988524999935,96.24949295801343,96.23410699999658,92.93931812501978,,,,,,,,,,,922169,001,2025-08-12_11h43.30.266,regret_experiment,2024.2.4,118.6136427426674,1,0.5,0.7,0.2,2025-08-12 11h43.36.929075 -0700,
18,0,18,left,0.40191866602981463,None,1,0.33563520899042487,None,18,0,18,0,96.24949295801343,,,,,,,,,96.23446175002027,96.24949295801343,0.01044562499737367,97.23325320804724,19,1,0.5,0.7,0.2,97.2335232910118,97.23969458299689,97.23969458299689,97.23969458299689,97.23969458299689,97.65182345802896,left,0.40191866602981463,None,left,0.40191866602981463,0.5,0,97.6720750000095,97.67930933303433,97.67930933303433,97.67930933303433,97.67930933303433,99.65484483301407,1,0.33563520899042487,99.6662340410403,100.01737108302768,1,100.01753466599621,100.02561691601295,101.02301995799644,101.01679583301302,97.23969458299689,99.67319016600959,99.67319016600959,99.67319016600959,99.67319016600959,99.67319016600959,0.33563520899042487,None,,,,922169,001,2025-08-12_11h43.30.266,regret_experiment,2024.2.4,118.6136427426674,1,0.5,0.7,0.2,2025-08-12 11h43.36.929075 -0700,
19,0,19,up,0.45157991599990055,None,None,,,19,0,19,0,101.02301995799644,,,,,,,,,101.01718550000805,101.02301995799644,-0.00027054199017584324,102.01620175002608,20,1,0.5,0.7,0.2,102.01645462500164,102.02224266604753,102.02224266604753,102.02224266604753,102.02224266604753,102.48382583301282,up,0.45157991599990055,None,up,0.45157991599990055,0.7,1,102.50292720802827,102.51075787504669,102.51075787504669,102.51075787504669,102.51075787504669,104.48812204104615,NA,NA,104.48839029105147,104.48844458302483,None,104.48851341602858,104.50000587501563,105.49061199999414,105.48390566604212,102.02224266604753,,,,,,,,,,,922169,001,2025-08-12_11h43.30.266,regret_experiment,2024.2.4,118.6136427426674,1,0.5,0.7,0.2,2025-08-12 11h43.36.929075 -0700,
20,0,20,up,0.3028947500279173,None,1,0.34503108297940344,None,20,0,20,0,105.49061199999414,,,,,,,,,105.48440579103772,105.49061199999414,0.0021774580236524343,106.48369950003689,21,1,0.5,0.7,0.2,106.48410754103679,106.49073420802597,106.49073420802597,106.49073420802597,106.49073420802597,106.80134145804914,up,0.3028947500279173,None,up,0.3028947500279173,0.7,0,106.82161683304003,106.82939358300064,106.82939358300064,106.82939358300064,106.82939358300064,108.8061937080347,1,0.34503108297940344,108.81764895800734,109.17268158303341,1,109.17279245803365,109.18321350001497,110.1734610410058,110.1668340000324,106.49073420802597,108.82459958305117,108.82459958305117,108.82459958305117,108.82459958305117,108.82459958305117,0.34503108297940344,None,,,,922169,001,2025-08-12_11h43.30.266,regret_experiment,2024.2.4,118.6136427426674,1,0.5,0.7,0.2,2025-08-12 11h43.36.929075 -0700,
21,0,21,right,0.41933166701346636,None,1,1.287470959010534,None,21,0,21,0,110.1734610410058,,,,,,,,,110.16736620804295,110.1734610410058,0.0007510000141337514,111.15618270804407,22,1,0.5,0.7,0.2,111.15643362503033,111.16594754101243,111.16594754101243,111.16594754101243,111.16594754101243,111.59160062501905,right,0.41933166701346636,None,right,0.41933166701346636,0.2,0,111.61129291600082,111.61896379099926,111.61896379099926,111.61896379099926,111.61896379099926,113.59931904100813,1,1.287470959010534,113.61185616604052,114.90820995799731,1,114.90832483302802,114.93273062503431,,115.91601745801745,111.16594754101243,113.61826937500155,113.61826937500155,113.61826937500155,113.61826937500155,113.61826937500155,1.287470959010534,None,,,,922169,001,2025-08-12_11h43.30.266,regret_experiment,2024.2.4,118.6136427426674,1,0.5,0.7,0.2,2025-08-12 11h43.36.929075 -0700,
22,0,22,up,0.2927871660212986,None,None,,,22,0,22,0,115.9228863750468,,,,,,,,,115.91655433300184,115.9228863750468,0.008290917030535638,116.91670729103498,23,1,0.5,0.7,0.2,116.91701212502085,116.93278491601814,116.93278491601814,116.93278491601814,116.93278491601814,117.23356316599529,up,0.2927871660212986,None,up,0.2927871660212986,0.7,1,117.2519459160394,117.25960041600047,117.25960041600047,117.25960041600047,117.25960041600047,119.23773008299759,NA,NA,119.23814129101811,119.23824775003595,None,119.23833970801206,119.24918491602875,120.23985154100228,120.23379770800238,,,,,,,,,,,,922169,001,2025-08-12_11h43.30.266,regret_experiment,2024.2.4,118.6136427426674,1,0.5,0.7,0.2,2025-08-12 11h43.36.929075 -0700,
23,0,23,up,0.3222974999807775,None,None,,,23,0,23,0,120.23985154100228,,,,,,,,,120.23435075004818,120.23985154100228,0.0015942500322125852,121.23309741599951,24,1,0.5,0.7,0.2,121.2334117499995,121.23880975000793,121.23880975000793,121.23880975000793,121.23880975000793,121.56770012504421,up,0.3222974999807775,None,up,0.3222974999807775,0.7,1,121.58567933301674,121.59416641603457,121.59416641603457,121.59416641603457,121.59416641603457,123.57277900003828,NA,NA,123.57305429101689,123.57311758300057,None,123.57318716601003,123.58250316604972,124.57337604102213,124.5663426250103,121.23880975000793,,,,,,,,,,,922169,001,2025-08-12_11h43.30.266,regret_experiment,2024.2.4,118.6136427426674,1,0.5,0.7,0.2,2025-08-12 11h43.36.929075 -0700,
24,0,24,up,0.37968220899347216,None,2,0.4787667919881642,None,24,0,24,0,124.57337604102213,,,,,,,,,124.56702458299696,124.57337604102213,0.00026691699167713523,125.56619112502085,25,1,0.5,0.7,0.2,125.56684887502342,125.57348679105053,125.57348679105053,125.57348679105053,125.57348679105053,125.96935733302962,up,0.37968220899347216,None,up,0.37968220899347216,0.7,0,125.9895248330431,125.99703787500039,125.99703787500039,125.99703787500039,125.99703787500039,127.97155691601802,2,0.4787667919881642,127.98288016603328,128.47322720801458,2,128.4733486250043,128.48197895800695,129.47243566601537,129.4663257910288,125.57348679105053,127.98970533302054,127.98970533302054,127.98970533302054,127.98970533302054,127.98970533302054,0.4787667919881642,None,,,,922169,001,2025-08-12_11h43.30.266,regret_experiment,2024.2.4,118.6136427426674,1,0.5,0.7,0.2,2025-08-12 11h43.36.929075 -0700,
25,0,25,left,0.279137457953766,None,None,,,25,0,25,0,129.47243566601537,,,,,,,,,129.4668445000425,129.47243566601537,-0.0007642909768037498,130.45648570801131,26,1,0.5,0.7,0.2,130.45675233303336,130.4657784580486,130.4657784580486,130.4657784580486,130.4657784580486,130.74975225003436,left,0.279137457953766,None,left,0.279137457953766,0.5,1,130.76767962501617,130.77507462503854,130.77507462503854,130.77507462503854,130.77507462503854,132.74989900004584,NA,NA,132.75025329104392,132.7503054580302,None,132.75038075004704,132.75559204100864,133.74929783301195,133.73967729101423,130.4657784580486,,,,,,,,,,,922169,001,2025-08-12_11h43.30.266,regret_experiment,2024.2.4,118.6136427426674,1,0.5,0.7,0.2,2025-08-12 11h43.36.929075 -0700,
26,0,26,left,0.36856508295750245,None,None,,,26,0,26,0,133.74929783301195,,,,,,,,,133.74010187503882,133.74929783301195,0.004452417022548616,134.7327965410077,27,1,0.5,0.7,0.2,134.73314829100855,134.74929666600656,134.74929666600656,134.74929666600656,134.74929666600656,135.1227254580008,left,0.36856508295750245,None,left,0.36856508295750245,0.5,1,135.14094800001476,135.14838833303656,135.14838833303656,135.14838833303656,135.14838833303656,137.13258358300664,NA,NA,137.1330287080491,137.13315558299655,None,137.1332584579941,137.13948733301368,138.13265350001166,138.12264162499923,134.73791795800207,,,,,,,,,,,922169,001,2025-08-12_11h43.30.266,regret_experiment,2024.2.4,118.6136427426674,1,0.5,0.7,0.2,2025-08-12 11h43.36.929075 -0700,
27,0,27,up,0.3116063750348985,None,None,,,27,0,27,0,138.13265350001166,,,,,,,,,138.1230013750028,138.13265350001166,-0.0005144999595358968,139.11621783301234,28,1,0.5,0.7,0.2,139.11646058299812,139.12219087500125,139.12219087500125,139.12219087500125,139.12219087500125,139.4406937500462,up,0.3116063750348985,None,up,0.3116063750348985,0.7,1,139.45844479103107,139.46581616601907,139.46581616601907,139.46581616601907,139.46581616601907,141.44927704101428,NA,NA,141.44954520801548,141.44960020802682,None,141.44968637503916,141.45641208300367,142.44963629101403,142.4395636250265,139.12219087500125,,,,,,,,,,,922169,001,2025-08-12_11h43.30.266,regret_experiment,2024.2.4,118.6136427426674,1,0.5,0.7,0.2,2025-08-12 11h43.36.929075 -0700,
28,0,28,right,0.29921029100660235,None,2,0.6401464579976164,None,28,0,28,0,142.44963629101403,,,,,,,,,142.44000854104524,142.44963629101403,5.774997407570481e-05,143.43246908299625,29,1,0.5,0.7,0.2,143.43275862501469,143.43844383303076,143.43844383303076,143.43844383303076,143.43844383303076,143.74045337503776,right,0.29921029100660235,None,right,0.29921029100660235,0.2,0,143.76000133302296,143.76753325003665,143.76753325003665,143.76753325003665,143.76753325003665,145.74998304102337,2,0.6401464579976164,145.7626140830107,146.41696841601515,2,146.41708787501557,146.42531270801555,147.42503241600934,147.41709483304294,143.43844383303076,145.76944308303064,145.76944308303064,145.76944308303064,145.76944308303064,145.76944308303064,0.6401464579976164,None,,,,922169,001,2025-08-12_11h43.30.266,regret_experiment,2024.2.4,118.6136427426674,1,0.5,0.7,0.2,2025-08-12 11h43.36.929075 -0700,
29,0,29,right,0.26178229198558256,None,2,0.36754437495255843,None,29,0,29,0,147.42503241600934,,,,,,,,,147.41758845804725,147.42503241600934,0.000566457980312407,148.41615125001408,30,1,0.5,0.7,0.2,148.4164195409976,148.42219070805004,148.42219070805004,148.42219070805004,148.42219070805004,148.6900857910514,right,0.26178229198558256,None,right,0.26178229198558256,0.2,0,148.7094726250507,148.7172974999994,148.7172974999994,148.7172974999994,148.7172974999994,150.69918475003215,2,0.36754437495255843,150.71061679103877,151.08990595804062,2,151.09001462504966,151.09856233303435,152.0900447909953,152.0831326660118,148.42219070805004,150.7173446660163,150.7173446660163,150.7173446660163,150.7173446660163,150.7173446660163,0.36754437495255843,None,,,,922169,001,2025-08-12_11h43.30.266,regret_experiment,2024.2.4,118.6136427426674,1,0.5,0.7,0.2,2025-08-12 11h43.36.929075 -0700,
30,0,30,right,0.25432899995939806,None,None,,,30,0,30,0,152.0900447909953,,,,,,,,,152.08357650000835,152.0900447909953,0.0001111250021494925,153.07275666604983,31,1,0.5,0.7,0.2,153.0730177499936,153.08251333300723,153.08251333300723,153.08251333300723,153.08251333300723,153.3395001660101,right,0.25432899995939806,None,right,0.25432899995939806,0.2,0,153.3589087080327,153.36718808300793,153.36718808300793,153.36718808300793,153.36718808300793,155.349318958004,NA,NA,155.34962212503888,155.34967466600938,None,155.34975170803955,155.35491966601694,156.3492316660122,156.3396568330354,153.08251333300723,,,,,,,,,,,922169,001,2025-08-12_11h43.30.266,regret_experiment,2024.2.4,118.6136427426674,1,0.5,0.7,0.2,2025-08-12 11h43.36.929075 -0700,
31,0,31,up,0.261031209025532,None,None,,,31,0,31,0,156.3492316660122,,,,,,,,,156.34014187502908,156.3492316660122,-0.0004044999950565398,157.3336105000344,32,1,0.5,0.7,0.2,157.3338893330074,157.34006775001762,157.34006775001762,157.34006775001762,157.34006775001762,157.6178581250133,up,0.261031209025532,None,up,0.261031209025532,0.7,1,157.63665383303305,157.64349370804848,157.64349370804848,157.64349370804848,157.64349370804848,159.62303012504708,NA,NA,159.62350475002313,159.62358179100556,None,159.62365600001067,159.6325953330379,160.62202354101464,160.6161693330505,157.34006775001762,,,,,,,,,,,922169,001,2025-08-12_11h43.30.266,regret_experiment,2024.2.4,118.6136427426674,1,0.5,0.7,0.2,2025-08-12 11h43.36.929075 -0700,
32,0,32,up,0.2957493749563582,None,None,,,32,0,32,0,160.62202354101464,,,,,,,,,160.61654462502338,160.62202354101464,0.009009458997752517,161.6171507500112,33,1,0.5,0.7,0.2,161.6175251250388,161.63331545802066,161.63331545802066,161.63331545802066,161.63331545802066,161.9343258330482,up,0.2957493749563582,None,up,0.2957493749563582,0.7,1,161.95292495802278,161.9603553750203,161.9603553750203,161.9603553750203,161.9603553750203,163.938162666047,NA,NA,163.93844845803687,163.9385031250422,None,163.93857520801248,163.94923825003207,164.93967037502443,164.93323766603135,161.63331545802066,,,,,,,,,,,922169,001,2025-08-12_11h43.30.266,regret_experiment,2024.2.4,118.6136427426674,1,0.5,0.7,0.2,2025-08-12 11h43.36.929075 -0700,
33,0,33,left,0.2686412910115905,None,None,,,33,0,33,0,164.93967037502443,,,,,,,,,164.933846458036,164.93967037502443,0.0011722909985110164,165.92316237499472,34,1,0.5,0.7,0.2,165.92341233300976,165.93289912503678,165.93289912503678,165.93289912503678,165.93289912503678,166.21863766602473,left,0.2686412910115905,None,left,0.2686412910115905,0.5,1,166.23718266602373,166.24500420800177,166.24500420800177,166.24500420800177,166.24500420800177,168.2225259160041,NA,NA,168.22296087502036,168.2230125000351,None,168.223081416043,168.2325728330179,169.22201920801308,169.21612462500343,165.93289912503678,,,,,,,,,,,922169,001,2025-08-12_11h43.30.266,regret_experiment,2024.2.4,118.6136427426674,1,0.5,0.7,0.2,2025-08-12 11h43.36.929075 -0700,
34,0,34,up,0.31540520902490243,None,None,,,34,0,34,0,169.22201920801308,,,,,,,,,169.2165032910416,169.22201920801308,-0.0009956250432878733,170.20502004103037,35,1,0.5,0.7,0.2,170.20526108302874,170.22172654099995,170.22172654099995,170.22172654099995,170.22172654099995,170.53935350000393,up,0.31540520902490243,None,up,0.31540520902490243,0.7,1,170.5573901660391,170.56573583302088,170.56573583302088,170.56573583302088,170.56573583302088,172.53975933301263,NA,NA,172.54016862501157,172.54024041601224,None,172.54031458304962,172.5497575410409,173.53876904101344,173.5329136660439,170.21588858304312,,,,,,,,,,,922169,001,2025-08-12_11h43.30.266,regret_experiment,2024.2.4,118.6136427426674,1,0.5,0.7,0.2,2025-08-12 11h43.36.929075 -0700,
35,0,35,right,0.4149550419533625,None,None,,,35,0,35,0,173.53876904101344,,,,,,,,,173.5332991660107,173.53876904101344,0.009665374993346632,174.52170041605132,36,1,0.5,0.7,0.2,174.52194162504748,174.53826404100982,174.53826404100982,174.53826404100982,174.53826404100982,174.95627845800482,right,0.4149550419533625,None,right,0.4149550419533625,0.2,0,174.9758021250018,174.98408612504136,174.98408612504136,174.98408612504136,174.98408612504136,176.96596454101382,NA,NA,176.96625379100442,176.96631791599793,None,176.96639287500875,176.97171175002586,177.97397325001657,177.96674850001,174.532602375024,,,,,,,,,,,922169,001,2025-08-12_11h43.30.266,regret_experiment,2024.2.4,118.6136427426674,1,0.5,0.7,0.2,2025-08-12 11h43.36.929075 -0700,
36,0,36,up,0.6621001670137048,None,None,,,36,0,36,0,177.97397325001657,,,,,,,,,177.96728741604602,177.97397325001657,0.0009578340104781091,178.96628358302405,37,1,0.5,0.7,0.2,178.9666800830164,178.97294250002597,178.97294250002597,178.97294250002597,178.97294250002597,179.63948583300225,up,0.6621001670137048,None,up,0.6621001670137048,0.7,1,179.65829024999402,179.66585816600127,179.66585816600127,179.66585816600127,179.66585816600127,181.64929070801008,NA,NA,181.64963316603098,181.64969783299603,None,181.6497764160158,181.6550567910308,182.65652845799923,182.65002970804926,178.97294250002597,,,,,,,,,,,922169,001,2025-08-12_11h43.30.266,regret_experiment,2024.2.4,118.6136427426674,1,0.5,0.7,0.2,2025-08-12 11h43.36.929075 -0700,
37,0,37,up,0.3144634590134956,None,None,,,37,0,37,0,182.65652845799923,,,,,,,,,182.650604916038,182.65652845799923,0.0009235420147888362,183.64948620804353,38,1,0.5,0.7,0.2,183.64979695802322,183.65563750005094,183.65563750005094,183.65563750005094,183.65563750005094,183.97342529101297,up,0.3144634590134956,None,up,0.3144634590134956,0.7,1,183.99251150002237,184.00105762504973,184.00105762504973,184.00105762504973,184.00105762504973,185.98265254101716,NA,NA,185.9829479160253,185.98300033301348,None,185.98306891601533,185.98851083300542,186.98303320800187,186.97222541604424,183.65563750005094,,,,,,,,,,,922169,001,2025-08-12_11h43.30.266,regret_experiment,2024.2.4,118.6136427426674,1,0.5,0.7,0.2,2025-08-12 11h43.36.929075 -0700,
38,0,38,left,0.29607983300229535,None,None,,,38,0,38,0,186.98303320800187,,,,,,,,,186.97257558302954,186.98303320800187,6.733299233019352e-05,187.96624241600512,39,1,0.5,0.7,0.2,187.96648270799778,187.97173033299623,187.97173033299623,187.97173033299623,187.97173033299623,188.2734307500068,left,0.29607983300229535,None,left,0.29607983300229535,0.5,1,188.29137212503701,188.299957500014,188.299957500014,188.299957500014,188.299957500014,190.28287633304717,NA,NA,190.28337550000288,190.2834452080424,None,190.2835286250338,190.28984733304242,191.28903600003105,191.2828435410047,187.97173033299623,,,,,,,,,,,922169,001,2025-08-12_11h43.30.266,regret_experiment,2024.2.4,118.6136427426674,1,0.5,0.7,0.2,2025-08-12 11h43.36.929075 -0700,
39,0,39,up,0.3514062920003198,None,None,,,39,0,39,0,191.28903600003105,,,,,,,,,191.28327487502247,191.28903600003105,-0.00019599997904151678,192.27353633299936,40,1,0.5,0.7,0.2,192.27378429099917,192.28262337500928,192.28262337500928,192.28262337500928,192.28262337500928,192.64027320803143,up,0.3514062920003198,None,up,0.3514062920003198,0.7,1,192.6586282500066,192.6670826250338,192.6670826250338,192.6670826250338,192.6670826250338,194.649271916016,NA,NA,194.64954883302562,194.64960550004616,None,194.64969008299522,194.6549082500278,195.6493969160365,195.63885504100472,192.28262337500928,,,,,,,,,,,922169,001,2025-08-12_11h43.30.266,regret_experiment,2024.2.4,118.6136427426674,1,0.5,0.7,0.2,2025-08-12 11h43.36.929075 -0700,
40,0,40,right,0.39588391699362546,None,None,,,40,0,40,0,195.6493969160365,,,,,,,,,195.63926233304664,195.6493969160365,-0.00020891695749014616,196.63305558305,41,1,0.5,0.7,0.2,196.63331079104682,196.6386329579982,196.6386329579982,196.6386329579982,196.6386329579982,197.04087395803072,right,0.39588391699362546,None,right,0.39588391699362546,0.2,0,197.06132300000172,197.06877187499776,197.06877187499776,197.06877187499776,197.06877187499776,199.04961154103512,NA,NA,199.05003795801895,199.05009091604734,None,199.05021308304276,199.05551016604295,200.04893220803933,200.03937820805004,196.6386329579982,,,,,,,,,,,922169,001,2025-08-12_11h43.30.266,regret_experiment,2024.2.4,118.6136427426674,1,0.5,0.7,0.2,2025-08-12 11h43.36.929075 -0700,
41,0,41,up,0.35217616701265797,None,None,,,41,0,41,0,200.04893220803933,,,,,,,,,200.03991962503642,200.04893220803933,0.004969041037838906,201.0338041250361,42,1,0.5,0.7,0.2,201.03405645804014,201.04926554101985,201.04926554101985,201.04926554101985,201.04926554101985,201.40769041603198,up,0.35217616701265797,None,up,0.35217616701265797,0.7,0,201.4291726250085,201.43647445802344,201.43647445802344,201.43647445802344,201.43647445802344,203.41588425001828,NA,NA,203.4161532500293,203.41620462504216,None,203.4162751249969,203.42160591599531,204.41589725000085,204.40586687502218,201.04926554101985,,,,,,,,,,,922169,001,2025-08-12_11h43.30.266,regret_experiment,2024.2.4,118.6136427426674,1,0.5,0.7,0.2,2025-08-12 11h43.36.929075 -0700,
42,0,42,up,0.2947221670183353,None,None,,,42,0,42,0,204.41589725000085,,,,,,,,,204.40618695801822,204.41589725000085,-0.0003014579997397959,205.39977425005054,43,1,0.5,0.7,0.2,205.40005720802583,205.40706312505063,205.40706312505063,205.40706312505063,205.40706312505063,205.70614337502047,up,0.2947221670183353,None,up,0.2947221670183353,0.7,0,205.72506662504748,205.73382904101163,205.73382904101163,205.73382904101163,205.73382904101163,207.71650025004055,NA,NA,207.71697937505087,207.7170520410291,None,207.71717341605108,207.72313216602197,208.7332589160069,208.71699516603258,205.40706312505063,,,,,,,,,,,922169,001,2025-08-12_11h43.30.266,regret_experiment,2024.2.4,118.6136427426674,1,0.5,0.7,0.2,2025-08-12 11h43.36.929075 -0700,
43,0,43,up,0.38345983397448435,None,None,,,43,0,43,0,208.7332589160069,,,,,,,,,208.7173695830279,208.7332589160069,0.00028208299772813916,209.71625425003003,44,1,0.5,0.7,0.2,209.71649112500018,209.72222541604424,209.72222541604424,209.72222541604424,209.72222541604424,210.1172262080363,up,0.38345983397448435,None,up,0.38345983397448435,0.7,1,210.1354551250115,210.14320833300008,210.14320833300008,210.14320833300008,210.14320833300008,212.12110287504038,NA,NA,212.12167620804394,212.12177879101364,None,212.12189225002658,212.13253141602036,213.12395512504736,213.11692712502554,209.72222541604424,,,,,,,,,,,922169,001,2025-08-12_11h43.30.266,regret_experiment,2024.2.4,118.6136427426674,1,0.5,0.7,0.2,2025-08-12 11h43.36.929075 -0700,
44,0,44,up,0.3621517089777626,None,None,,,44,0,44,0,213.12395512504736,,,,,,,,,213.11751458304934,213.12395512504736,0.0021519589936360717,214.11620741599472,45,1,0.5,0.7,0.2,214.11645945801865,214.12218954099808,214.12218954099808,214.12218954099808,214.12218954099808,214.4912743330351,up,0.3621517089777626,None,up,0.3621517089777626,0.7,1,214.509402375028,214.51730666600633,214.51730666600633,214.51730666600633,214.51730666600633,216.49937770800898,NA,NA,216.49990441603586,216.49998362502083,None,216.50007675000234,216.50630795804318,217.50780000002123,217.50054737500614,214.12218954099808,,,,,,,,,,,922169,001,2025-08-12_11h43.30.266,regret_experiment,2024.2.4,118.6136427426674,1,0.5,0.7,0.2,2025-08-12 11h43.36.929075 -0700,
45,0,45,left,0.30306262499652803,None,None,,,45,0,45,0,217.50780000002123,,,,,,,,,217.50101587502286,217.50780000002123,0.0010114579927176237,218.5000414160313,46,1,0.5,0.7,0.2,218.50042400002712,218.5067377910018,218.5067377910018,218.5067377910018,218.5067377910018,218.81709425000008,left,0.30306262499652803,None,left,0.30306262499652803,0.5,0,218.83718720800243,218.84450270800153,218.84450270800153,218.84450270800153,218.84450270800153,220.82325004099403,NA,NA,220.82373658299912,220.8238138750312,None,220.8239026250085,220.83222079102416,221.82219291600632,221.81624320801347,218.5067377910018,,,,,,,,,,,922169,001,2025-08-12_11h43.30.266,regret_experiment,2024.2.4,118.6136427426674,1,0.5,0.7,0.2,2025-08-12 11h43.36.929075 -0700,
46,0,46,left,0.3476287079975009,None,None,,,46,0,46,0,221.82219291600632,,,,,,,,,221.81661195802735,221.82219291600632,0.00887379195773974,222.81608962500468,47,1,0.5,0.7,0.2,222.81632700003684,222.82235329103423,222.82235329103423,222.82235329103423,222.82235329103423,223.18432429101085,left,0.3476287079975009,None,left,0.3476287079975009,0.5,1,223.2029552910244,223.2108045410132,223.2108045410132,223.2108045410132,223.2108045410132,225.18904429103713,NA,NA,225.18937516602455,225.18943000002764,None,225.1895095410291,225.19926212501014,226.19015525002033,226.18315066600917,222.82235329103423,,,,,,,,,,,922169,001,2025-08-12_11h43.30.266,regret_experiment,2024.2.4,118.6136427426674,1,0.5,0.7,0.2,2025-08-12 11h43.36.929075 -0700,
47,0,47,up,0.4115664580021985,None,None,,,47,0,47,0,226.19015525002033,,,,,,,,,226.18379145802464,226.19015525002033,0.0007212079945020378,227.17290395800956,48,1,0.5,0.7,0.2,227.1731761660194,227.1829869580106,227.1829869580106,227.1829869580106,227.1829869580106,227.60064091603272,up,0.4115664580021985,None,up,0.4115664580021985,0.7,0,227.6200990829966,227.6273769160034,227.6273769160034,227.6273769160034,227.6273769160034,229.6046515830094,NA,NA,229.60493508301442,229.60498933302006,None,229.60505770804593,229.61585900001228,230.61605187499663,230.60074795800028,227.1829869580106,,,,,,,,,,,922169,001,2025-08-12_11h43.30.266,regret_experiment,2024.2.4,118.6136427426674,1,0.5,0.7,0.2,2025-08-12 11h43.36.929075 -0700,
48,0,48,up,0.2838383339694701,None,None,,,48,0,48,0,230.61605187499663,,,,,,,,,230.60131837503286,230.61605187499663,0.011100167001131922,231.5995651660487,49,1,0.5,0.7,0.2,231.59988791600335,231.60552458302118,231.60552458302118,231.60552458302118,231.60552458302118,231.89077037503012,up,0.2838383339694701,None,up,0.2838383339694701,0.7,1,231.90845170803368,231.9168954580091,231.9168954580091,231.9168954580091,231.9168954580091,233.8993422500207,NA,NA,233.89985149999848,233.89991533302236,None,233.90001158299856,233.90631258301437,234.9057358330465,234.89953437499935,231.60552458302118,,,,,,,,,,,922169,001,2025-08-12_11h43.30.266,regret_experiment,2024.2.4,118.6136427426674,1,0.5,0.7,0.2,2025-08-12 11h43.36.929075 -0700,
49,0,49,right,0.41296024998882785,None,None,,,49,0,49,0,234.9057358330465,,,,,,,,,234.89989912504097,234.9057358330465,-3.8166006561368704e-05,235.89947733300505,50,1,0.5,0.7,0.2,235.8997323330259,235.90563079103595,235.90563079103595,235.90563079103595,235.90563079103595,236.32289983303053,right,0.41296024998882785,None,right,0.41296024998882785,0.2,0,236.34215529100038,236.35044400003972,236.35044400003972,236.35044400003972,236.35044400003972,238.33341612503864,NA,NA,238.33391266601393,238.33400241599884,None,238.33410333300708,238.34010416601086,239.3381825000397,239.33272429101635,235.90563079103595,,,,,,,,,,,922169,001,2025-08-12_11h43.30.266,regret_experiment,2024.2.4,118.6136427426674,1,0.5,0.7,0.2,2025-08-12 11h43.36.929075 -0700,
50,0,50,up,0.33463100000517443,None,None,,,50,0,50,0,239.3381825000397,,,,,,,,,239.3331070410204,239.3381825000397,-0.0009310839814133942,240.32335975003662,51,1,0.5,0.7,0.2,240.32359141600318,240.3326134160161,240.3326134160161,240.3326134160161,240.3326134160161,240.6740806660382,up,0.33463100000517443,None,up,0.33463100000517443,0.7,0,240.69372466602363,240.70138383301673,240.70138383301673,240.70138383301673,240.70138383301673,242.68263925000792,NA,NA,242.68290466599865,242.68295608303742,None,242.6830242910073,242.68823433300713,243.6826280830428,243.67301129101543,240.3326134160161,,,,,,,,,,,922169,001,2025-08-12_11h43.30.266,regret_experiment,2024.2.4,118.6136427426674,1,0.5,0.7,0.2,2025-08-12 11h43.36.929075 -0700,
51,0,51,left,0.32891375001054257,None,None,,,51,0,51,0,243.6826280830428,,,,,,,,,243.67338941601338,243.6826280830428,-0.00032774999272078276,244.66621762502473,52,1,0.5,0.7,0.2,244.66644454101333,244.67230108304648,244.67230108304648,244.67230108304648,244.67230108304648,245.00769491604296,left,0.32891375001054257,None,left,0.32891375001054257,0.5,1,245.02554804104147,245.03272441599984,245.03272441599984,245.03272441599984,245.03272441599984,247.0150070830132,NA,NA,247.0153018750134,247.0153541660402,None,247.01542195799993,247.01980516599724,248.03262475004885,248.0115697500296,244.67230108304648,,,,,,,,,,,922169,001,2025-08-12_11h43.30.266,regret_experiment,2024.2.4,118.6136427426674,1,0.5,0.7,0.2,2025-08-12 11h43.36.929075 -0700,
52,0,52,up,0.33744329202454537,None,None,,,52,0,52,0,248.03262475004885,,,,,,,,,248.01184158300748,248.03262475004885,0.01726358395535499,249.016440041014,53,1,0.5,0.7,0.2,249.01686241599964,249.02382050000597,249.02382050000597,249.02382050000597,249.02382050000597,249.36775591602782,up,0.33744329202454537,None,up,0.33744329202454537,0.7,0,249.3873908329988,249.39497904101154,249.39497904101154,249.39497904101154,249.39497904101154,251.37064012500923,NA,NA,251.37087037501624,251.37091704102932,None,251.37098500004504,251.38247116602724,252.3715632079984,252.36632833303884,,,,,,,,,,,,922169,001,2025-08-12_11h43.30.266,regret_experiment,2024.2.4,118.6136427426674,1,0.5,0.7,0.2,2025-08-12 11h43.36.929075 -0700,
53,0,53,right,0.28578687499975786,None,None,,,53,0,53,0,252.3715632079984,,,,,,,,,252.36669383302797,252.3715632079984,0.0006474580150097609,253.3569241250516,54,1,0.5,0.7,0.2,253.35720341600245,253.36555166600738,253.36555166600738,253.36555166600738,253.36555166600738,253.6557061659987,right,0.28578687499975786,None,right,0.28578687499975786,0.2,0,253.6747691660421,253.68312804104062,253.68312804104062,253.68312804104062,253.68312804104062,255.66602687502746,NA,NA,255.66652262501884,255.66660237504402,None,255.66668037499767,255.67242166603683,256.6653989580227,256.6566640830133,253.36555166600738,,,,,,,,,,,922169,001,2025-08-12_11h43.30.266,regret_experiment,2024.2.4,118.6136427426674,1,0.5,0.7,0.2,2025-08-12 11h43.36.929075 -0700,
54,0,54,up,0.281758000026457,None,None,,,54,0,54,0,256.6653989580227,,,,,,,,,256.65705691603944,256.6653989580227,0.005018500029109418,257.6498378330143,55,1,0.5,0.7,0.2,257.6501144160284,257.6570099160308,257.6570099160308,257.6570099160308,257.6570099160308,257.9512725000386,up,0.281758000026457,None,up,0.281758000026457,0.7,1,257.9704155000509,257.9780882500345,257.9780882500345,257.9780882500345,257.9780882500345,259.9548372080317,NA,NA,259.9551205000025,259.95517504104646,None,259.9552477080142,259.96665787504753,260.9548885000404,260.94958233303623,257.6570099160308,,,,,,,,,,,922169,001,2025-08-12_11h43.30.266,regret_experiment,2024.2.4,118.6136427426674,1,0.5,0.7,0.2,2025-08-12 11h43.36.929075 -0700,
55,0,55,up,0.2758277080138214,None,None,,,55,0,55,0,260.9548885000404,,,,,,,,,260.9499500830425,260.9548885000404,-0.0002881670370697975,261.9395000000368,56,1,0.5,0.7,0.2,261.93973912502406,261.94929891603533,261.94929891603533,261.94929891603533,261.94929891603533,262.2340671250131,up,0.2758277080138214,None,up,0.2758277080138214,0.7,1,262.2516954159946,262.2589185000397,262.2589185000397,262.2589185000397,262.2589185000397,264.2392594999983,NA,NA,264.23966750002,264.2397325829952,None,264.23980858305003,264.24962870799936,265.2388745410135,265.23296354099875,261.94929891603533,,,,,,,,,,,922169,001,2025-08-12_11h43.30.266,regret_experiment,2024.2.4,118.6136427426674,1,0.5,0.7,0.2,2025-08-12 11h43.36.929075 -0700,
56,0,56,left,0.27905783301685005,None,None,,,56,0,56,0,265.2388745410135,,,,,,,,,265.2334535830305,265.2388745410135,-0.000859582971315831,266.22191833303077,57,1,0.5,0.7,0.2,266.2221607500105,266.23817208304536,266.23817208304536,266.23817208304536,266.23817208304536,266.5227054160205,left,0.27905783301685005,None,left,0.27905783301685005,0.5,1,266.5409416659968,266.54920574999414,266.54920574999414,266.54920574999414,266.54920574999414,268.5331129160477,NA,NA,268.53363370802253,268.53371325001353,None,268.53381387499394,268.5402883750503,269.5398984160274,269.53352441603784,266.2327750000404,,,,,,,,,,,922169,001,2025-08-12_11h43.30.266,regret_experiment,2024.2.4,118.6136427426674,1,0.5,0.7,0.2,2025-08-12 11h43.36.929075 -0700,
57,0,57,up,0.38286745798541233,None,None,,,57,0,57,0,269.5398984160274,,,,,,,,,269.53391183301574,269.5398984160274,0.0001598750241100788,270.5327612500405,58,1,0.5,0.7,0.2,270.5330887910095,270.5384649580228,270.5384649580228,270.5384649580228,270.5384649580228,270.9337154160021,up,0.38286745798541233,None,up,0.38286745798541233,0.7,1,270.95273479103344,270.95990833302494,270.95990833302494,270.95990833302494,270.95990833302494,272.93934129102854,NA,NA,272.93965512502473,272.93972441600636,None,272.93979550001677,272.94963970803656,273.93858891603304,273.9329035410192,270.5384649580228,,,,,,,,,,,922169,001,2025-08-12_11h43.30.266,regret_experiment,2024.2.4,118.6136427426674,1,0.5,0.7,0.2,2025-08-12 11h43.36.929075 -0700,
58,0,58,up,0.5344825829961337,None,None,,,58,0,58,0,273.93858891603304,,,,,,,,,273.9332351250341,273.93858891603304,0.01013612502720207,274.9216645830311,59,1,0.5,0.7,0.2,274.92190920800203,274.9498940000194,274.9498940000194,274.9498940000194,274.9498940000194,275.4900402080384,up,0.5344825829961337,None,up,0.5344825829961337,0.7,0,275.5104086660431,275.51830400002655,275.51830400002655,275.51830400002655,275.51830400002655,277.49943791603437,NA,NA,277.49971812503645,277.49977841600776,None,277.4998497500201,277.50511341600213,278.49919116601814,278.4892150410451,274.9331216660212,,,,,,,,,,,922169,001,2025-08-12_11h43.30.266,regret_experiment,2024.2.4,118.6136427426674,1,0.5,0.7,0.2,2025-08-12 11h43.36.929075 -0700,
59,0,59,left,0.5445087080006488,None,None,,,59,0,59,0,278.49919116601814,,,,,,,,,278.489590333018,278.49919116601814,-0.0005880410317331553,279.48380870802794,60,1,0.5,0.7,0.2,279.484159958025,279.4905522080371,279.4905522080371,279.4905522080371,279.4905522080371,280.03943674999755,left,0.5445087080006488,None,left,0.5445087080006488,0.5,1,280.0573722500121,280.0647170000011,280.0647170000011,280.0647170000011,280.0647170000011,282.049265416048,NA,NA,282.04966600000625,282.0497278330149,None,282.0498027499998,282.0550309580285,283.0776176250074,283.0381859160261,279.4905522080371,,,,,,,,,,,922169,001,2025-08-12_11h43.30.266,regret_experiment,2024.2.4,118.6136427426674,1,0.5,0.7,0.2,2025-08-12 11h43.36.929075 -0700,
,,,,,,,,,,,,,,,,,,,,,,,,,,,,,,,,,,,,,,,,,,,,,,,,,,,,,,,,,,,,,,,,,,,N/A,283.0698297500494,283.0776176250074,,,,,,,,,,,,
