thisN,thisTrialN,thisRepN,key_resp_1.keys,key_resp_1.rt,key_resp_1.duration,regret_key.keys,regret_key.rt,regret_key.duration,trials.thisRepN,trials.thisTrialN,trials.thisN,trials.thisIndex,thisRow.t,notes,begin_exp.started,begin.started,advance_key.started,begin_exp.stopped,advance_key.keys,advance_key.rt,advance_key.duration,Fixation.started,fixcross.started,etRecord.started,Fixation.stopped,trial_num,participant_cond,prob_left,prob_up,prob_right,Choice.started,tree1_img.started,tree2_img.started,tree3_img.started,key_resp_1.started,Choice.stopped,trials.key_resp_1.keys,trials.key_resp_1.rt,trials.key_resp_1.duration,choice_key,choice_rt,choice_prob,points,Feedback.started,appleImage.started,tree1.started,tree2.started,tree3.started,Feedback.stopped,RegretRating.started,regret_scale.started,regret_key.started,rtree1.started,rtree2.started,rtree3.started,RegretRating.stopped,trials.regret_key.keys,trials.regret_key.rt,trials.regret_key.duration,regret_rating,regret_rt,ITI.started,blank_screen.started,ITI.stopped,blank_screen.stopped,fixcross.stopped,avg_regret,EndScreen.started,end_display.started,participant,session,date,expName,psychopyVersion,frameRate,participant_cond,prob_left,prob_up,prob_right,expStart,
,,,,,,,,,,,,,,,0.0689808749993972,0.12010612499943818,0.12010612499943818,9.281359874999907,space,9.154624208000314,None,,,,,,1,0.2,0.7,0.5,,,,,,,,,,,,,,,,,,,,,,,,,,,,,,,,,,,,,,,,931797,001,2025-08-07_10h38.31.714,regret_experiment,2024.2.4,121.73187944977683,1,0.2,0.7,0.5,2025-08-07 10h38.43.200169 -0700,
0,0,0,up,1.7290639579987328,None,1,6.2968128330012405,None,0,0,0,0,9.850966833999337,,,,,,,,,9.290588541998659,9.850966833999337,0.009168084001430543,10.290796458999466,1,1,0.2,0.7,0.5,10.29112104199885,10.369657999999617,10.369657999999617,10.369657999999617,10.369657999999617,12.109406542000215,up,1.7290639579987328,None,up,1.7290639579987328,0.7,0,12.149564792000092,12.408968959000049,12.408968959000049,12.408968959000049,12.408968959000049,14.113108958999874,14.120843124999737,14.12951854199855,14.12951854199855,14.12951854199855,14.12951854199855,14.12951854199855,20.431333958998948,1,6.2968128330012405,None,1,6.2968128330012405,20.43152016699969,20.552549666999766,21.44052562499928,,,,,,931797,001,2025-08-07_10h38.31.714,regret_experiment,2024.2.4,121.73187944977683,1,0.2,0.7,0.5,2025-08-07 10h38.43.200169 -0700,
1,0,1,left,0.5321988329997112,None,1,0.5963979580010346,None,1,0,1,0,21.449573583999154,,,,,,,,,21.44178941700011,21.449573583999154,0.010419499998533865,22.44018616699941,2,1,0.2,0.7,0.5,22.44054845899882,22.445392249999713,22.445392249999713,22.445392249999713,22.445392249999713,22.980585499999506,left,0.5321988329997112,None,left,0.5321988329997112,0.2,0,22.995396917000107,23.00539624999874,23.00539624999874,23.00539624999874,23.00539624999874,24.98996166699908,24.99750574999962,25.005608416999166,25.005608416999166,25.005608416999166,25.005608416999166,25.005608416999166,25.609287792000032,1,0.5963979580010346,None,1,0.5963979580010346,25.609410375000152,25.615585458999703,26.607226999998602,26.612743542000317,,,,,931797,001,2025-08-07_10h38.31.714,regret_experiment,2024.2.4,121.73187944977683,1,0.2,0.7,0.5,2025-08-07 10h38.43.200169 -0700,
2,0,2,right,1.2680813749993831,None,1,0.5532910829988396,None,2,0,2,0,26.612743542000317,,,,,,,,,26.60760870899867,26.612743542000317,0.003464290999545483,27.59573995899882,3,1,0.2,0.7,0.5,27.59602249999989,27.606788208999205,27.606788208999205,27.606788208999205,27.606788208999205,28.88068291699892,right,1.2680813749993831,None,right,1.2680813749993831,0.5,0,28.893891583998993,28.902243124999586,28.902243124999586,28.902243124999586,28.902243124999586,30.890348584000094,30.89751733399862,30.904672624999876,30.904672624999876,30.904672624999876,30.904672624999876,30.904672624999876,31.46488566699918,1,0.5532910829988396,None,1,0.5532910829988396,31.4649739589986,31.4734777499998,32.45710024999971,32.46276245899935,27.606788208999205,,,,931797,001,2025-08-07_10h38.31.714,regret_experiment,2024.2.4,121.73187944977683,1,0.2,0.7,0.5,2025-08-07 10h38.43.200169 -0700,
3,0,3,up,0.35493162499915343,None,2,1.0857502919989201,None,3,0,3,0,32.46276245899935,,,,,,,,,32.457540458999574,32.46276245899935,0.008536917001038091,33.446290083998974,4,1,0.2,0.7,0.5,33.44657612499941,33.46237641699918,33.46237641699918,33.46237641699918,33.46237641699918,33.824989708999055,up,0.35493162499915343,None,up,0.35493162499915343,0.7,0,33.84130550000009,33.848302541999146,33.848302541999146,33.848302541999146,33.848302541999146,35.82872145900001,35.83563879199937,35.84418258400001,35.84418258400001,35.84418258400001,35.84418258400001,35.84418258400001,36.94081025000014,2,1.0857502919989201,None,2,1.0857502919989201,36.940886041998965,36.945348291999835,37.92921391699929,37.94013999999879,33.45614695899894,,,,931797,001,2025-08-07_10h38.31.714,regret_experiment,2024.2.4,121.73187944977683,1,0.2,0.7,0.5,2025-08-07 10h38.43.200169 -0700,
4,0,4,left,0.6792908330007776,None,None,,,4,0,4,0,37.94013999999879,,,,,,,,,37.92952041699937,37.94013999999879,-0.0006503330005216412,38.92420745900017,5,1,0.2,0.7,0.5,38.92445179199967,38.92987995899966,38.92987995899966,38.92987995899966,38.92987995899966,39.615450666999095,left,0.6792908330007776,None,left,0.6792908330007776,0.2,1,39.62810983399868,39.63553766699988,39.63553766699988,39.63553766699988,39.63553766699988,41.62306495899975,41.62356437499875,,,,,,41.623605041999326,None,,,NA,NA,41.6236694170002,41.62846479200016,42.61200199999985,42.6237947919999,38.92987995899966,,,,931797,001,2025-08-07_10h38.31.714,regret_experiment,2024.2.4,121.73187944977683,1,0.2,0.7,0.5,2025-08-07 10h38.43.200169 -0700,
5,0,5,left,0.6123064589992282,None,2,1.0711186250009632,None,5,0,5,0,42.6237947919999,,,,,,,,,42.61230004199933,42.6237947919999,0.0002902090000134194,43.60776312499911,6,1,0.2,0.7,0.5,43.60807575000035,43.61353720899933,43.61353720899933,43.61353720899933,43.61353720899933,44.2309757919993,left,0.6123064589992282,None,left,0.6123064589992282,0.2,0,44.244159083998966,44.263687916998606,44.263687916998606,44.263687916998606,44.263687916998606,46.23977237500003,46.24750258399945,46.25406504199964,46.25406504199964,46.25406504199964,46.25406504199964,46.25406504199964,47.33109824999883,2,1.0711186250009632,None,2,1.0711186250009632,47.33119816699946,47.34041695899941,48.324167249998936,48.32967374999862,43.61353720899933,,,,931797,001,2025-08-07_10h38.31.714,regret_experiment,2024.2.4,121.73187944977683,1,0.2,0.7,0.5,2025-08-07 10h38.43.200169 -0700,
6,0,6,left,0.5964872090007702,None,2,0.9443056660002185,None,6,0,6,0,48.32967374999862,,,,,,,,,48.32456454199928,48.32967374999862,0.00915316700047697,49.313010541998665,7,1,0.2,0.7,0.5,49.313298749999376,49.328889000000345,49.328889000000345,49.328889000000345,49.328889000000345,49.93109816699871,left,0.5964872090007702,None,left,0.5964872090007702,0.2,0,49.94507700000031,49.95236062499862,49.95236062499862,49.95236062499862,49.95236062499862,51.940336124998794,51.947738791999654,51.95526691699888,51.95526691699888,51.95526691699888,51.95526691699888,51.95526691699888,52.90749429199968,2,0.9443056660002185,None,2,0.9443056660002185,52.9075670000002,52.91457491700021,53.90737379199891,53.913673458999256,49.323349583999516,,,,931797,001,2025-08-07_10h38.31.714,regret_experiment,2024.2.4,121.73187944977683,1,0.2,0.7,0.5,2025-08-07 10h38.43.200169 -0700,
7,0,7,right,0.7674449170008302,None,2,1.9708364170001005,None,7,0,7,0,53.913673458999256,,,,,,,,,53.907730208999055,53.913673458999256,0.00020133399993937928,54.90723066699866,8,1,0.2,0.7,0.5,54.907640374998664,54.91336962499918,54.91336962499918,54.91336962499918,54.91336962499918,55.68361337500028,right,0.7674449170008302,None,right,0.7674449170008302,0.5,0,55.696503708999444,55.703600291999464,55.703600291999464,55.703600291999464,55.703600291999464,57.69012337499953,57.69676583399996,57.70419941699947,57.70419941699947,57.70419941699947,57.70419941699947,57.70419941699947,59.68241729199872,2,1.9708364170001005,None,2,1.9708364170001005,59.6825048339997,59.68995287500002,60.67451204200006,60.68057574999875,54.91336962499918,,,,931797,001,2025-08-07_10h38.31.714,regret_experiment,2024.2.4,121.73187944977683,1,0.2,0.7,0.5,2025-08-07 10h38.43.200169 -0700,
8,0,8,up,0.3376701659999526,None,None,,,8,0,8,0,60.68057574999875,,,,,,,,,60.67519199999879,60.68057574999875,0.007045374999506748,61.67284108399872,9,1,0.2,0.7,0.5,61.67318854199948,61.67924108399893,61.67924108399893,61.67924108399893,61.67924108399893,62.02491566699973,up,0.3376701659999526,None,up,0.3376701659999526,0.7,1,62.03975570900002,62.04787383399889,62.04787383399889,62.04787383399889,62.04787383399889,64.02894974999981,64.02955108399874,,,,,,64.02958637499978,None,,,NA,NA,64.02963912499945,64.04007979199923,65.02399045899983,65.02960516699932,61.67924108399893,,,,931797,001,2025-08-07_10h38.31.714,regret_experiment,2024.2.4,121.73187944977683,1,0.2,0.7,0.5,2025-08-07 10h38.43.200169 -0700,
9,0,9,up,0.3620787500003644,None,None,,,9,0,9,0,65.02960516699932,,,,,,,,,65.02426237500003,65.02960516699932,9.958400005416479e-05,66.01399462500012,10,1,0.2,0.7,0.5,66.01420991699888,66.02340116699997,66.02340116699997,66.02340116699997,66.02340116699997,66.39134570900023,up,0.3620787500003644,None,up,0.3620787500003644,0.7,1,66.40519833399958,66.41270429199903,66.41270429199903,66.41270429199903,66.41270429199903,68.39735237499917,68.39789550000023,,,,,,68.39793241699954,None,,,NA,NA,68.39802425000016,68.40597841699855,69.39057445899925,69.39732274999915,66.02340116699997,,,,931797,001,2025-08-07_10h38.31.714,regret_experiment,2024.2.4,121.73187944977683,1,0.2,0.7,0.5,2025-08-07 10h38.43.200169 -0700,
10,0,10,up,0.3355435410012433,None,None,,,10,0,10,0,69.39732274999915,,,,,,,,,69.39156133399956,69.39732274999915,-0.0005231249997450504,70.38109770899973,11,1,0.2,0.7,0.5,70.38137462499981,70.38900658399871,70.38900658399871,70.38900658399871,70.38900658399871,70.72961166699861,up,0.3355435410012433,None,up,0.3355435410012433,0.7,1,70.74145358399983,70.74787058400034,70.74787058400034,70.74787058400034,70.74787058400034,72.73993441699895,72.74087316700025,,,,,,72.74097487499967,None,,,NA,NA,72.74109504199987,72.74647870899935,73.73995174999982,73.74540795899884,70.38900658399871,,,,931797,001,2025-08-07_10h38.31.714,regret_experiment,2024.2.4,121.73187944977683,1,0.2,0.7,0.5,2025-08-07 10h38.43.200169 -0700,
11,0,11,up,0.30197354200026894,None,None,,,11,0,11,0,73.74540795899884,,,,,,,,,73.74030387499988,73.74540795899884,-0.0007302500016521662,74.72849370899894,12,1,0.2,0.7,0.5,74.72880929199891,74.73994420899908,74.73994420899908,74.73994420899908,74.73994420899908,75.04971066699909,up,0.30197354200026894,None,up,0.30197354200026894,0.7,1,75.06302416699873,75.07139416700011,75.07139416700011,75.07139416700011,75.07139416700011,77.05648983399988,77.05738504199871,,,,,,77.05749341699993,None,,,NA,NA,77.05761333400005,77.06319570899905,78.04675345899886,78.05560258399964,74.73994420899908,,,,931797,001,2025-08-07_10h38.31.714,regret_experiment,2024.2.4,121.73187944977683,1,0.2,0.7,0.5,2025-08-07 10h38.43.200169 -0700,
12,0,12,up,0.2685295829996903,None,1,1.1029043339985947,None,12,0,12,0,78.05560258399964,,,,,,,,,78.04706737499873,78.05560258399964,0.0036851250006293412,79.04086800000005,13,1,0.2,0.7,0.5,79.04187691699917,79.05634508399999,79.05634508399999,79.05634508399999,79.05634508399999,79.33018520899896,up,0.2685295829996903,None,up,0.2685295829996903,0.7,0,79.3436531669995,79.35064016700017,79.35064016700017,79.35064016700017,79.35064016700017,81.33981287499955,81.34662316699905,81.35499924999931,81.35499924999931,81.35499924999931,81.35499924999931,81.35499924999931,82.46328066699971,1,1.1029043339985947,None,1,1.1029043339985947,82.46335033399919,82.47305462499935,83.45715462499902,83.46364195899878,79.04736245899949,,,,931797,001,2025-08-07_10h38.31.714,regret_experiment,2024.2.4,121.73187944977683,1,0.2,0.7,0.5,2025-08-07 10h38.43.200169 -0700,
13,0,13,up,0.2912594999997964,None,None,,,13,0,13,0,83.46364195899878,,,,,,,,,83.45795104199897,83.46364195899878,0.0004225829998176778,84.45618483399994,14,1,0.2,0.7,0.5,84.4564930839988,84.46194983399982,84.46194983399982,84.46194983399982,84.46194983399982,84.757834,up,0.2912594999997964,None,up,0.2912594999997964,0.7,1,84.77128166699913,84.77923254199959,84.77923254199959,84.77923254199959,84.77923254199959,86.76085508399956,86.76138625000021,,,,,,86.76141966700015,None,,,NA,NA,86.76146829199934,86.77282591699986,87.7565650839988,87.76228154199998,84.46194983399982,,,,931797,001,2025-08-07_10h38.31.714,regret_experiment,2024.2.4,121.73187944977683,1,0.2,0.7,0.5,2025-08-07 10h38.43.200169 -0700,
14,0,14,up,0.3106834170012007,None,2,1.7362892080000165,None,14,0,14,0,87.76228154199998,,,,,,,,,87.75733087499975,87.76228154199998,0.0009114170006796485,88.75714162499935,15,1,0.2,0.7,0.5,88.75766858399948,88.76283983400026,88.76283983400026,88.76283983400026,88.76283983400026,89.07876108399978,up,0.3106834170012007,None,up,0.3106834170012007,0.7,0,89.09185191699908,89.09828808400016,89.09828808400016,89.09828808400016,89.09828808400016,91.08983737499875,91.09810341699995,91.1046556250003,91.1046556250003,91.1046556250003,91.1046556250003,91.1046556250003,92.84591308400013,2,1.7362892080000165,None,2,1.7362892080000165,92.84598012499919,92.85507691699968,93.83956062499965,93.84536670899979,88.76283983400026,,,,931797,001,2025-08-07_10h38.31.714,regret_experiment,2024.2.4,121.73187944977683,1,0.2,0.7,0.5,2025-08-07 10h38.43.200169 -0700,
15,0,15,left,0.30973783300032665,None,3,1.0650487919992884,None,15,0,15,0,93.84536670899979,,,,,,,,,93.83985879200009,93.84536670899979,-0.0005465829999593552,94.83888062499864,16,1,0.2,0.7,0.5,94.8392643749994,94.84417920899978,94.84417920899978,94.84417920899978,94.84417920899978,95.1566338749999,left,0.30973783300032665,None,left,0.30973783300032665,0.2,0,95.16910666699914,95.17586729199866,95.17586729199866,95.17586729199866,95.17586729199866,97.16220983399944,97.16898445900006,97.17658779199883,97.17658779199883,97.17658779199883,97.17658779199883,97.17658779199883,98.24613158399916,3,1.0650487919992884,None,3,1.0650487919992884,98.2461977919993,98.2548725839988,99.24000741700002,99.24604566699963,94.84417920899978,,,,931797,001,2025-08-07_10h38.31.714,regret_experiment,2024.2.4,121.73187944977683,1,0.2,0.7,0.5,2025-08-07 10h38.43.200169 -0700,
16,0,16,right,0.5247063749993686,None,None,,,16,0,16,0,99.24604566699963,,,,,,,,,99.24129866699877,99.24604566699963,-5.500000042957254e-05,100.23933220899926,17,1,0.2,0.7,0.5,100.23958387499988,100.24484929199934,100.24484929199934,100.24484929199934,100.24484929199934,100.77377912500015,right,0.5247063749993686,None,right,0.5247063749993686,0.5,1,100.78610408399982,100.79308108399891,100.79308108399891,100.79308108399891,100.79308108399891,102.7793900839988,102.7799849589992,,,,,,102.78002129199922,None,,,NA,NA,102.78007099999923,102.7898002919992,103.77364079200015,103.77896799999871,100.24484929199934,,,,931797,001,2025-08-07_10h38.31.714,regret_experiment,2024.2.4,121.73187944977683,1,0.2,0.7,0.5,2025-08-07 10h38.43.200169 -0700,
17,0,17,right,0.3012027089989715,None,None,,,17,0,17,0,103.77896799999871,,,,,,,,,103.7739921249995,103.77896799999871,-0.000985832999504055,104.76381787500031,18,1,0.2,0.7,0.5,104.76406624999981,104.77319858400006,104.77319858400006,104.77319858400006,104.77319858400006,105.08104870900024,right,0.3012027089989715,None,right,0.3012027089989715,0.5,1,105.09712554199905,105.11860937500023,105.11860937500023,105.11860937500023,105.11860937500023,107.08948529199915,107.09053416699862,,,,,,107.09058329199979,None,,,NA,NA,107.0906899169986,107.09557412499998,108.08925291699961,108.09477766700002,104.77319858400006,,,,931797,001,2025-08-07_10h38.31.714,regret_experiment,2024.2.4,121.73187944977683,1,0.2,0.7,0.5,2025-08-07 10h38.43.200169 -0700,
18,0,18,right,0.568660416000057,None,2,0.5933415420004167,None,18,0,18,0,108.09477766700002,,,,,,,,,108.08968308399926,108.09477766700002,-0.000948708999203518,109.0807006670002,19,1,0.2,0.7,0.5,109.08105208399866,109.08864449999965,109.08864449999965,109.08864449999965,109.08864449999965,109.66313433399955,right,0.568660416000057,None,right,0.568660416000057,0.5,0,109.67676399999982,109.6834857089998,109.6834857089998,109.6834857089998,109.6834857089998,111.67224625000017,111.67896970899892,111.68841508399964,111.68841508399964,111.68841508399964,111.68841508399964,111.68841508399964,112.29064854199896,2,0.5933415420004167,None,2,0.5933415420004167,112.29072962499959,112.29856783399919,113.29048691699973,113.29710729199905,109.08864449999965,,,,931797,001,2025-08-07_10h38.31.714,regret_experiment,2024.2.4,121.73187944977683,1,0.2,0.7,0.5,2025-08-07 10h38.43.200169 -0700,
19,0,19,up,0.6814633329995559,None,2,0.38967699999921024,None,19,0,19,0,113.29710729199905,,,,,,,,,113.29119933400034,113.29710729199905,0.0005349160001060227,114.28912533400035,20,1,0.2,0.7,0.5,114.28946149999865,114.29499833399859,114.29499833399859,114.29499833399859,114.29499833399859,114.98007870899892,up,0.6814633329995559,None,up,0.6814633329995559,0.7,0,114.99399520899897,115.00122124999871,115.00122124999871,115.00122124999871,115.00122124999871,116.98934162499972,116.99627041699932,117.00306045899924,117.00306045899924,117.00306045899924,117.00306045899924,117.00306045899924,117.39731241699883,2,0.38967699999921024,None,2,0.38967699999921024,117.39738120899892,117.40507020899895,118.39094091699917,118.39694454199889,114.29499833399859,,,,931797,001,2025-08-07_10h38.31.714,regret_experiment,2024.2.4,121.73187944977683,1,0.2,0.7,0.5,2025-08-07 10h38.43.200169 -0700,
20,0,20,right,0.30172658400078944,None,3,0.4903391250009008,None,20,0,20,0,118.39694454199889,,,,,,,,,118.39172312499977,118.39694454199889,-0.0003179579998686677,119.38987900000029,21,1,0.2,0.7,0.5,119.39013716699992,119.39537408399883,119.39537408399883,119.39537408399883,119.39537408399883,119.70752312500008,right,0.30172658400078944,None,right,0.30172658400078944,0.5,0,119.72206616699987,119.72947595899859,119.72947595899859,119.72947595899859,119.72947595899859,121.71124758399856,121.7181624169989,121.72677904199918,121.72677904199918,121.72677904199918,121.72677904199918,121.72677904199918,122.22457983399909,3,0.4903391250009008,None,3,0.4903391250009008,122.22467691699967,122.23254879199885,123.22433549999914,123.23102599999947,119.39537408399883,,,,931797,001,2025-08-07_10h38.31.714,regret_experiment,2024.2.4,121.73187944977683,1,0.2,0.7,0.5,2025-08-07 10h38.43.200169 -0700,
21,0,21,up,0.36363616599919624,None,None,,,21,0,21,0,123.23102599999947,,,,,,,,,123.22517883399996,123.23102599999947,0.000577458000407205,124.2234762499993,22,1,0.2,0.7,0.5,124.22373620899998,124.2290878749991,124.2290878749991,124.2290878749991,124.2290878749991,124.59474829200008,up,0.36363616599919624,None,up,0.36363616599919624,0.7,1,124.6076529589991,124.61527266699886,124.61527266699886,124.61527266699886,124.61527266699886,126.59657345899905,126.59721324999919,,,,,,126.59724770899993,None,,,NA,NA,126.59730037499867,126.60622358399996,127.59068649999972,127.59683470900018,124.2290878749991,,,,931797,001,2025-08-07_10h38.31.714,regret_experiment,2024.2.4,121.73187944977683,1,0.2,0.7,0.5,2025-08-07 10h38.43.200169 -0700,
22,0,22,up,0.4197334590007813,None,None,,,22,0,22,0,127.59683470900018,,,,,,,,,127.59151520900014,127.59683470900018,-0.00033570800042070914,128.59048149999944,23,1,0.2,0.7,0.5,128.59097895899868,128.5976540419997,128.5976540419997,128.5976540419997,128.5976540419997,129.02351199999976,up,0.4197334590007813,None,up,0.4197334590007813,0.7,1,129.03507258399986,129.0435675839999,129.0435675839999,129.0435675839999,129.0435675839999,131.02873116699993,131.0292542499992,,,,,,131.0292930839987,None,,,NA,NA,131.02940012499857,131.039038334,132.02344433399958,132.02879408399895,128.5976540419997,,,,931797,001,2025-08-07_10h38.31.714,regret_experiment,2024.2.4,121.73187944977683,1,0.2,0.7,0.5,2025-08-07 10h38.43.200169 -0700,
23,0,23,up,0.2841907089987217,None,2,0.530708083000718,None,23,0,23,0,132.02879408399895,,,,,,,,,132.02371920899895,132.02879408399895,-0.0004746670001622988,133.0227921249989,24,1,0.2,0.7,0.5,133.02308070899926,133.028421084,133.028421084,133.028421084,133.028421084,133.32321237499855,up,0.2841907089987217,None,up,0.2841907089987217,0.7,0,133.3374621669991,133.344727624999,133.344727624999,133.344727624999,133.344727624999,135.328307709,135.33511050000016,135.34322141699886,135.34322141699886,135.34322141699886,135.34322141699886,135.34322141699886,135.8811152090002,2,0.530708083000718,None,2,0.530708083000718,135.88118937499894,135.88962549999997,136.87341662499966,136.87874249999913,133.028421084,,,,931797,001,2025-08-07_10h38.31.714,regret_experiment,2024.2.4,121.73187944977683,1,0.2,0.7,0.5,2025-08-07 10h38.43.200169 -0700,
24,0,24,up,0.527463041998999,None,2,1.3890434580007422,None,24,0,24,0,136.87874249999913,,,,,,,,,136.87373087499873,136.87874249999913,0.007775541998853441,137.86255391699888,25,1,0.2,0.7,0.5,137.863031375,137.88109395900028,137.88109395900028,137.88109395900028,137.88109395900028,138.41463995899903,up,0.527463041998999,None,up,0.527463041998999,0.7,0,138.4279289999995,138.43502304199865,138.43502304199865,138.43502304199865,138.43502304199865,140.4220026669991,140.42897249999987,140.4356842090001,140.4356842090001,140.4356842090001,140.4356842090001,140.4356842090001,141.83009466699878,2,1.3890434580007422,None,2,1.3890434580007422,141.83017120899967,141.83826045899877,142.82319270900007,142.82827729199926,137.8723675000001,,,,931797,001,2025-08-07_10h38.31.714,regret_experiment,2024.2.4,121.73187944977683,1,0.2,0.7,0.5,2025-08-07 10h38.43.200169 -0700,
25,0,25,up,0.3245184999996127,None,3,0.6803620410009898,None,25,0,25,0,142.82827729199926,,,,,,,,,142.82357137500003,142.82827729199926,0.00821991600059846,143.81191308399866,26,1,0.2,0.7,0.5,143.81222462499863,143.82840695899904,143.82840695899904,143.82840695899904,143.82840695899904,144.15716429199892,up,0.3245184999996127,None,up,0.3245184999996127,0.7,0,144.17021933399883,144.17793616699964,144.17793616699964,144.17793616699964,144.17793616699964,146.16139504199964,146.1686308749995,146.17658174999997,146.17658174999997,146.17658174999997,146.17658174999997,146.17658174999997,146.8640811669993,3,0.6803620410009898,None,3,0.6803620410009898,146.86416287499924,146.87282829200012,147.85630754199883,147.86217674999898,143.82237929199982,,,,931797,001,2025-08-07_10h38.31.714,regret_experiment,2024.2.4,121.73187944977683,1,0.2,0.7,0.5,2025-08-07 10h38.43.200169 -0700,
26,0,26,right,0.5063893330006977,None,2,0.384514790999674,None,26,0,26,0,147.86217674999898,,,,,,,,,147.85689558400009,147.86217674999898,0.007869917000789428,148.84567841699936,27,1,0.2,0.7,0.5,148.84596720899935,148.86136733399871,148.86136733399871,148.86136733399871,148.86136733399871,149.37298287500016,right,0.5063893330006977,None,right,0.5063893330006977,0.5,0,149.38594012499925,149.39376883399927,149.39376883399927,149.39376883399927,149.39376883399927,151.37842850000015,151.38518308399944,151.39278141700015,151.39278141700015,151.39278141700015,151.39278141700015,151.39278141700015,151.7805049589988,2,0.384514790999674,None,2,0.384514790999674,151.780634834,151.78796949999924,152.7730905419994,152.77810649999992,148.85508562499854,,,,931797,001,2025-08-07_10h38.31.714,regret_experiment,2024.2.4,121.73187944977683,1,0.2,0.7,0.5,2025-08-07 10h38.43.200169 -0700,
27,0,27,right,0.35628670799997053,None,3,0.914296375000049,None,27,0,27,0,152.77810649999992,,,,,,,,,152.77336787499917,152.77810649999992,0.008517458001733758,153.7617995419987,28,1,0.2,0.7,0.5,153.76200937499925,153.77970724999977,153.77970724999977,153.77970724999977,153.77970724999977,154.13927683399925,right,0.35628670799997053,None,right,0.35628670799997053,0.5,0,154.15313312499893,154.16018108400021,154.16018108400021,154.16018108400021,154.16018108400021,156.14586883399897,156.1527109589988,156.15995883399955,156.15995883399955,156.15995883399955,156.15995883399955,156.15995883399955,157.08019316699938,3,0.914296375000049,None,3,0.914296375000049,157.08025920899854,157.0889017919999,158.07300029199905,158.07909237499916,153.77252837499873,,,,931797,001,2025-08-07_10h38.31.714,regret_experiment,2024.2.4,121.73187944977683,1,0.2,0.7,0.5,2025-08-07 10h38.43.200169 -0700,
28,0,28,up,0.28013783400092507,None,2,0.33820654200098943,None,28,0,28,0,158.07909237499916,,,,,,,,,158.07367645900013,158.07909237499916,0.008546999999452964,159.07359199999883,29,1,0.2,0.7,0.5,159.07412029199986,159.0799285840003,159.0799285840003,159.0799285840003,159.0799285840003,159.36288304200025,up,0.28013783400092507,None,up,0.28013783400092507,0.7,0,159.3769510839993,159.38413679199948,159.38413679199948,159.38413679199948,159.38413679199948,161.3725409589988,161.3791047499999,161.38556299999982,161.38556299999982,161.38556299999982,161.38556299999982,161.38556299999982,161.73090016700007,2,0.33820654200098943,None,2,0.33820654200098943,161.73098191699864,161.73902266699952,162.7232688339991,162.72870924999916,159.0799285840003,,,,931797,001,2025-08-07_10h38.31.714,regret_experiment,2024.2.4,121.73187944977683,1,0.2,0.7,0.5,2025-08-07 10h38.43.200169 -0700,
29,0,29,left,0.2950359580008808,None,2,0.7141323750001902,None,29,0,29,0,162.72870924999916,,,,,,,,,162.723615375,162.72870924999916,0.007302374999198946,163.7222252499996,30,1,0.2,0.7,0.5,163.72302141699947,163.72859483399952,163.72859483399952,163.72859483399952,163.72859483399952,164.02950791699914,left,0.2950359580008808,None,left,0.2950359580008808,0.2,0,164.04240279199985,164.0517063749994,164.0517063749994,164.0517063749994,164.0517063749994,166.03173008399972,166.03894958399906,166.04577400000016,166.04577400000016,166.04577400000016,166.04577400000016,166.04577400000016,166.76463208399946,2,0.7141323750001902,None,2,0.7141323750001902,166.76470079199862,166.77342720900015,167.77070174999972,,163.72859483399952,,,,931797,001,2025-08-07_10h38.31.714,regret_experiment,2024.2.4,121.73187944977683,1,0.2,0.7,0.5,2025-08-07 10h38.43.200169 -0700,
30,0,30,up,0.8710837079997873,None,None,,,30,0,30,0,168.04871783399904,,,,,,,,,167.77138845899935,168.04871783399904,0.006726666999384179,168.7713335419994,31,1,0.2,0.7,0.5,168.77168166699994,168.77665708399945,168.77665708399945,168.77665708399945,168.77665708399945,169.65661575000013,up,0.8710837079997873,None,up,0.8710837079997873,0.7,1,169.66929916699883,169.67622283399942,169.67622283399942,169.67622283399942,169.67622283399942,171.66076320899992,171.66162166699905,,,,,,171.6617213339996,None,,,NA,NA,171.66184108400012,171.67179479199876,172.65605824999875,172.66224216699993,,,,,931797,001,2025-08-07_10h38.31.714,regret_experiment,2024.2.4,121.73187944977683,1,0.2,0.7,0.5,2025-08-07 10h38.43.200169 -0700,
31,0,31,up,0.3059500420004042,None,None,,,31,0,31,0,172.66224216699993,,,,,,,,,172.6567394169997,172.66224216699993,0.0005226249995757826,173.6561359999996,32,1,0.2,0.7,0.5,173.6565748339999,173.66205287499906,173.66205287499906,173.66205287499906,173.66205287499906,173.9729804999988,up,0.3059500420004042,None,up,0.3059500420004042,0.7,0,173.98586287499893,173.99292666699876,173.99292666699876,173.99292666699876,173.99292666699876,175.97794629199961,175.978534124999,,,,,,175.97856304199922,None,,,NA,NA,175.97860799999944,175.9876117499989,176.97076404200016,176.97696429200005,173.66205287499906,,,,931797,001,2025-08-07_10h38.31.714,regret_experiment,2024.2.4,121.73187944977683,1,0.2,0.7,0.5,2025-08-07 10h38.43.200169 -0700,
32,0,32,up,0.28560558299977856,None,None,,,32,0,32,0,176.97696429200005,,,,,,,,,176.97120470899972,176.97696429200005,0.00840812500064203,177.96109162500034,33,1,0.2,0.7,0.5,177.96131683400017,177.9784437090002,177.9784437090002,177.9784437090002,177.9784437090002,178.271774249999,up,0.28560558299977856,None,up,0.28560558299977856,0.7,0,178.28398712499984,178.29117179199966,178.29117179199966,178.29117179199966,178.29117179199966,180.2722066669994,180.2731404999995,,,,,,180.27329404199918,None,,,NA,NA,180.2735005839986,180.27858416699928,181.26172608399975,181.27100970900028,177.971784166999,,,,931797,001,2025-08-07_10h38.31.714,regret_experiment,2024.2.4,121.73187944977683,1,0.2,0.7,0.5,2025-08-07 10h38.43.200169 -0700,
33,0,33,up,0.26838566699916555,None,None,,,33,0,33,0,181.27100970900028,,,,,,,,,181.26206554199962,181.27100970900028,0.0035456249988783384,182.25511579199883,34,1,0.2,0.7,0.5,182.25541749999866,182.27183416699881,182.27183416699881,182.27183416699881,182.27183416699881,182.5437726250002,up,0.26838566699916555,None,up,0.26838566699916555,0.7,0,182.55637025000033,182.56285512499926,182.56285512499926,182.56285512499926,182.56285512499926,184.5445734999994,184.54507070900036,,,,,,184.54511287499918,None,,,NA,NA,184.54519674999938,184.5543550000002,185.53742895899995,185.54252674999952,182.25969129199984,,,,931797,001,2025-08-07_10h38.31.714,regret_experiment,2024.2.4,121.73187944977683,1,0.2,0.7,0.5,2025-08-07 10h38.43.200169 -0700,
34,0,34,right,0.24065650000011374,None,None,,,34,0,34,0,185.54252674999952,,,,,,,,,185.53787462499895,185.54252674999952,0.009873874998447718,186.52634562499952,35,1,0.2,0.7,0.5,186.52656758400008,186.54306379199988,186.54306379199988,186.54306379199988,186.54306379199988,186.78882383400014,right,0.24065650000011374,None,right,0.24065650000011374,0.5,1,186.80102945900035,186.80796416699923,186.80796416699923,186.80796416699923,186.80796416699923,188.7933336669994,188.79383333399892,,,,,,188.793871459,None,,,NA,NA,188.793922249999,188.80369379199874,189.78745608399913,189.79263487499884,186.53768320899871,,,,931797,001,2025-08-07_10h38.31.714,regret_experiment,2024.2.4,121.73187944977683,1,0.2,0.7,0.5,2025-08-07 10h38.43.200169 -0700,
35,0,35,right,0.39013750000049185,None,None,,,35,0,35,0,189.79263487499884,,,,,,,,,189.78783937499975,189.79263487499884,0.01116695900054765,190.77650433399867,36,1,0.2,0.7,0.5,190.77671416699923,190.79363804199966,190.79363804199966,190.79363804199966,190.79363804199966,191.18931741699998,right,0.39013750000049185,None,right,0.39013750000049185,0.5,1,191.20147674999862,191.20831295899916,191.20831295899916,191.20831295899916,191.20831295899916,193.19281154199962,193.19333212499987,,,,,,193.1933589170003,None,,,NA,NA,193.19341724999867,193.20361483399938,194.18731445899903,194.1924394589987,190.78854645899992,,,,931797,001,2025-08-07_10h38.31.714,regret_experiment,2024.2.4,121.73187944977683,1,0.2,0.7,0.5,2025-08-07 10h38.43.200169 -0700,
36,0,36,right,0.36599199999909615,None,None,,,36,0,36,0,194.1924394589987,,,,,,,,,194.18783041699862,194.1924394589987,-0.0008589999997639097,195.17637229199863,37,1,0.2,0.7,0.5,195.17660533399976,195.1937065000002,195.1937065000002,195.1937065000002,195.1937065000002,195.56283808399894,right,0.36599199999909615,None,right,0.36599199999909615,0.5,0,195.57626379199974,195.58353062499918,195.58353062499918,195.58353062499918,195.58353062499918,197.57140158400034,197.57175187499888,,,,,,197.5717782089996,None,,,NA,NA,197.57182479199946,197.57631062499968,198.55955625000024,198.5708295839995,195.1884853749998,,,,931797,001,2025-08-07_10h38.31.714,regret_experiment,2024.2.4,121.73187944977683,1,0.2,0.7,0.5,2025-08-07 10h38.43.200169 -0700,
37,0,37,right,0.30125295800098684,None,None,,,37,0,37,0,198.5708295839995,,,,,,,,,198.5598627090003,198.5708295839995,-0.0009417080000275746,199.5539214170003,38,1,0.2,0.7,0.5,199.55420524999863,199.57181225000022,199.57181225000022,199.57181225000022,199.57181225000022,199.8781462499992,right,0.30125295800098684,None,right,0.30125295800098684,0.5,0,199.8905109999996,199.89718116699987,199.89718116699987,199.89718116699987,199.89718116699987,201.88743137500023,201.88778520899905,,,,,,201.88781987499897,None,,,NA,NA,201.88787387499906,201.89242962499884,202.87781324999924,202.8882751250003,199.55876179199913,,,,931797,001,2025-08-07_10h38.31.714,regret_experiment,2024.2.4,121.73187944977683,1,0.2,0.7,0.5,2025-08-07 10h38.43.200169 -0700,
38,0,38,right,0.24421583299954364,None,None,,,38,0,38,0,202.8882751250003,,,,,,,,,202.87814845899993,202.8882751250003,0.0005226659995969385,203.87197783400006,39,1,0.2,0.7,0.5,203.87227362500016,203.87856749999992,203.87856749999992,203.87856749999992,203.87856749999992,204.1278782089994,right,0.24421583299954364,None,right,0.24421583299954364,0.5,1,204.14182304199858,204.14829012500013,204.14829012500013,204.14829012500013,204.14829012500013,206.13819920899914,206.13854591699965,,,,,,206.13858524999887,None,,,NA,NA,206.1386498339998,206.14360883399968,207.13830170899928,207.14320733400018,203.87856749999992,,,,931797,001,2025-08-07_10h38.31.714,regret_experiment,2024.2.4,121.73187944977683,1,0.2,0.7,0.5,2025-08-07 10h38.43.200169 -0700,
39,0,39,right,0.4777566669999942,None,None,,,39,0,39,0,207.14320733400018,,,,,,,,,207.13863824999862,207.14320733400018,3.620799907366745e-05,208.1264489589994,40,1,0.2,0.7,0.5,208.12671033399965,208.13788545900024,208.13788545900024,208.13788545900024,208.13788545900024,208.6226755839998,right,0.4777566669999942,None,right,0.4777566669999942,0.5,0,208.63485541699993,208.64248170899918,208.64248170899918,208.64248170899918,208.64248170899918,210.62654187499902,210.62692504199913,,,,,,210.62696441699882,None,,,NA,NA,210.62703891699857,210.63748933399984,211.62230004199955,211.62742670899934,208.13788545900024,,,,931797,001,2025-08-07_10h38.31.714,regret_experiment,2024.2.4,121.73187944977683,1,0.2,0.7,0.5,2025-08-07 10h38.43.200169 -0700,
40,0,40,up,0.21042908299932606,None,None,,,40,0,40,0,211.62742670899934,,,,,,,,,211.62282454199885,211.62742670899934,0.0004883750007138588,212.6128341249987,41,1,0.2,0.7,0.5,212.61304649999875,212.62124037499962,212.62124037499962,212.62124037499962,212.62124037499962,212.83883708400026,up,0.21042908299932606,None,up,0.21042908299932606,0.7,1,212.85059970899965,212.85764949999975,212.85764949999975,212.85764949999975,212.85764949999975,214.84304104199873,214.84353454200027,,,,,,214.84356512500017,None,,,NA,NA,214.84361066699967,214.85407112499888,215.8370625839998,215.84211537499868,212.62124037499962,,,,931797,001,2025-08-07_10h38.31.714,regret_experiment,2024.2.4,121.73187944977683,1,0.2,0.7,0.5,2025-08-07 10h38.43.200169 -0700,
41,0,41,up,0.24163954200048465,None,None,,,41,0,41,0,215.84211537499868,,,,,,,,,215.83746762499868,215.84211537499868,0.010370459000114352,216.82735945899913,42,1,0.2,0.7,0.5,216.82767379199868,216.83820741699856,216.83820741699856,216.83820741699856,216.83820741699856,217.08886383400022,up,0.24163954200048465,None,up,0.24163954200048465,0.7,0,217.10116920899964,217.10790658399856,217.10790658399856,217.10790658399856,217.10790658399856,219.0936649590003,219.09432808400015,,,,,,219.0944254999995,None,,,NA,NA,219.094569375,219.10394545899908,220.08877570899858,220.09411920899947,216.83820741699856,,,,931797,001,2025-08-07_10h38.31.714,regret_experiment,2024.2.4,121.73187944977683,1,0.2,0.7,0.5,2025-08-07 10h38.43.200169 -0700,
42,0,42,right,0.26667970800008334,None,None,,,42,0,42,0,220.09411920899947,,,,,,,,,220.08915091699964,220.09411920899947,-0.0002814170002238825,221.07758270900013,43,1,0.2,0.7,0.5,221.07804187500005,221.0935951249994,221.0935951249994,221.0935951249994,221.0935951249994,221.3721973339998,right,0.26667970800008334,None,right,0.26667970800008334,0.5,0,221.3844256249995,221.391164749999,221.391164749999,221.391164749999,221.391164749999,223.376539375,223.3770925839999,,,,,,223.37712524999915,None,,,NA,NA,223.377179916999,223.3881313339989,224.37116400000014,224.37597616699895,221.08795366699997,,,,931797,001,2025-08-07_10h38.31.714,regret_experiment,2024.2.4,121.73187944977683,1,0.2,0.7,0.5,2025-08-07 10h38.43.200169 -0700,
43,0,43,up,0.6126877499991679,None,None,,,43,0,43,0,224.37597616699895,,,,,,,,,224.3714988339998,224.37597616699895,0.009763707999809412,225.3609111249989,44,1,0.2,0.7,0.5,225.36112691699964,225.3705915419996,225.3705915419996,225.3705915419996,225.3705915419996,225.98932479199902,up,0.6126877499991679,None,up,0.6126877499991679,0.7,1,226.00168520899933,226.00891087499986,226.00891087499986,226.00891087499986,226.00891087499986,227.99430312499862,227.99479291699936,,,,,,227.9948201669995,None,,,NA,NA,227.99486716699903,228.00455579200025,228.98837708399878,228.99328187500032,225.3705915419996,,,,931797,001,2025-08-07_10h38.31.714,regret_experiment,2024.2.4,121.73187944977683,1,0.2,0.7,0.5,2025-08-07 10h38.43.200169 -0700,
44,0,44,up,0.25246187500124506,None,None,,,44,0,44,0,228.99328187500032,,,,,,,,,228.98874491700008,228.99328187500032,0.009082874999876367,229.9762216250001,45,1,0.2,0.7,0.5,229.97643687500022,229.9953302920003,229.9953302920003,229.9953302920003,229.9953302920003,230.2559704590003,up,0.25246187500124506,None,up,0.25246187500124506,0.7,0,230.2683537089997,230.27539437499945,230.27539437499945,230.27539437499945,230.27539437499945,232.25987841699862,232.26038541699927,,,,,,232.26042766699902,None,,,NA,NA,232.26048287499907,232.27099120899948,233.25520604200028,233.2599784590002,229.98819133399957,,,,931797,001,2025-08-07_10h38.31.714,regret_experiment,2024.2.4,121.73187944977683,1,0.2,0.7,0.5,2025-08-07 10h38.43.200169 -0700,
45,0,45,up,0.2675535839989607,None,None,,,45,0,45,0,233.2599784590002,,,,,,,,,233.25553470900013,233.2599784590002,-0.0004231670009176014,234.243068709,46,1,0.2,0.7,0.5,234.24328258399873,234.26023237499976,234.26023237499976,234.26023237499976,234.26023237499976,234.53913591699893,up,0.2675535839989607,None,up,0.2675535839989607,0.7,1,234.55044170899964,234.55741362499975,234.55741362499975,234.55741362499975,234.55741362499975,236.5453472499994,236.54585020899867,,,,,,236.54588154199882,None,,,NA,NA,236.54592749999938,236.5542484589987,237.53811262499948,237.5428740419993,234.25358116699863,,,,931797,001,2025-08-07_10h38.31.714,regret_experiment,2024.2.4,121.73187944977683,1,0.2,0.7,0.5,2025-08-07 10h38.43.200169 -0700,
46,0,46,up,0.3844595840000693,None,None,,,46,0,46,0,237.5428740419993,,,,,,,,,237.53847645899987,237.5428740419993,0.008415667000008398,238.52681762499924,47,1,0.2,0.7,0.5,238.5270506249999,238.54375645899927,238.54375645899927,238.54375645899927,238.54375645899927,238.93952874999923,up,0.3844595840000693,None,up,0.3844595840000693,0.7,1,238.95130554199932,238.95789854199938,238.95789854199938,238.95789854199938,238.95789854199938,240.94187774999955,240.94240337500014,,,,,,240.942436542,None,,,NA,NA,240.94248437500028,240.95305595900027,241.93763570899864,241.94261208399985,238.53766729199924,,,,931797,001,2025-08-07_10h38.31.714,regret_experiment,2024.2.4,121.73187944977683,1,0.2,0.7,0.5,2025-08-07 10h38.43.200169 -0700,
47,0,47,up,0.3095830420006678,None,None,,,47,0,47,0,241.94261208399985,,,,,,,,,241.93794399999933,241.94261208399985,0.0002276659997733077,242.92809845899865,48,1,0.2,0.7,0.5,242.92832154200005,242.937978209,242.937978209,242.937978209,242.937978209,243.2556564589995,up,0.3095830420006678,None,up,0.3095830420006678,0.7,1,243.26711174999946,243.2746909999987,243.2746909999987,243.2746909999987,243.2746909999987,245.2594328340001,245.25985579199914,,,,,,245.25989204199868,None,,,NA,NA,245.25995824999882,245.27005420899877,246.25547145899873,246.2607634169999,242.937978209,,,,931797,001,2025-08-07_10h38.31.714,regret_experiment,2024.2.4,121.73187944977683,1,0.2,0.7,0.5,2025-08-07 10h38.43.200169 -0700,
48,0,48,up,0.3400978749996284,None,None,,,48,0,48,0,246.2607634169999,,,,,,,,,246.2557367089994,246.2607634169999,0.0009434999992663506,247.25338229199951,49,1,0.2,0.7,0.5,247.25359599999865,247.25877712500005,247.25877712500005,247.25877712500005,247.25877712500005,247.60456020899983,up,0.3400978749996284,None,up,0.3400978749996284,0.7,0,247.6174211669986,247.6243422919997,247.6243422919997,247.6243422919997,247.6243422919997,249.61059437499898,249.61114454199924,,,,,,249.6111777089991,None,,,NA,NA,249.6112252919993,249.619690042,250.60456779199922,250.60957529199914,247.25877712500005,,,,931797,001,2025-08-07_10h38.31.714,regret_experiment,2024.2.4,121.73187944977683,1,0.2,0.7,0.5,2025-08-07 10h38.43.200169 -0700,
49,0,49,up,0.270620916999178,None,None,,,49,0,49,0,250.60957529199914,,,,,,,,,250.6049014170003,250.60957529199914,0.010332709000067553,251.59258695899916,50,1,0.2,0.7,0.5,251.5928140420001,251.60921870899983,251.60921870899983,251.60921870899983,251.60921870899983,251.88875949999965,up,0.270620916999178,None,up,0.270620916999178,0.7,0,251.90088712499892,251.90774033399975,251.90774033399975,251.90774033399975,251.90774033399975,253.8928741669988,253.89321887499864,,,,,,253.89325587500025,None,,,NA,NA,253.89332758399905,253.90424654199887,254.8888830420001,254.89402641699962,251.60334166699977,,,,931797,001,2025-08-07_10h38.31.714,regret_experiment,2024.2.4,121.73187944977683,1,0.2,0.7,0.5,2025-08-07 10h38.43.200169 -0700,
50,0,50,up,0.32377045800058113,None,None,,,50,0,50,0,254.89402641699962,,,,,,,,,254.88933879199976,254.89402641699962,0.0007852090002415935,255.88678495899876,51,1,0.2,0.7,0.5,255.88702637499955,255.89196504199936,255.89196504199936,255.89196504199936,255.89196504199936,256.22289266699954,up,0.32377045800058113,None,up,0.32377045800058113,0.7,1,256.23756287499964,256.24468408400026,256.24468408400026,256.24468408400026,256.24468408400026,258.22750662499857,258.22806624999976,,,,,,258.2280918340002,None,,,NA,NA,258.22813762499936,258.23827195899867,259.22176899999977,259.22684712499904,255.89196504199936,,,,931797,001,2025-08-07_10h38.31.714,regret_experiment,2024.2.4,121.73187944977683,1,0.2,0.7,0.5,2025-08-07 10h38.43.200169 -0700,
51,0,51,up,0.4207668750004814,None,None,,,51,0,51,0,259.22684712499904,,,,,,,,,259.222127084,259.22684712499904,0.008975790999102173,260.21999920899907,52,1,0.2,0.7,0.5,260.2202482089997,260.2257054589991,260.2257054589991,260.2257054589991,260.2257054589991,260.65552924999974,up,0.4207668750004814,None,up,0.4207668750004814,0.7,0,260.6675725839996,260.67443187499885,260.67443187499885,260.67443187499885,260.67443187499885,262.6601950839995,262.6606839169999,,,,,,262.66072324999914,None,,,NA,NA,262.6607700839995,262.6703049589996,263.6547109999992,263.66100958399875,260.2257054589991,,,,931797,001,2025-08-07_10h38.31.714,regret_experiment,2024.2.4,121.73187944977683,1,0.2,0.7,0.5,2025-08-07 10h38.43.200169 -0700,
52,0,52,up,0.26774545799889893,None,None,,,52,0,52,0,263.66100958399875,,,,,,,,,263.6552107089992,263.66100958399875,0.00032137500056705903,264.6540998749988,53,1,0.2,0.7,0.5,264.65437145899887,264.65967224999986,264.65967224999986,264.65967224999986,264.65967224999986,264.9391276669994,up,0.26774545799889893,None,up,0.26774545799889893,0.7,1,264.95056750000003,264.9575398340003,264.9575398340003,264.9575398340003,264.9575398340003,266.94207774999995,266.9426074999992,,,,,,266.94264999999905,None,,,NA,NA,266.9427117919986,266.9529145839988,267.93813537499955,267.9447029169987,264.65967224999986,,,,931797,001,2025-08-07_10h38.31.714,regret_experiment,2024.2.4,121.73187944977683,1,0.2,0.7,0.5,2025-08-07 10h38.43.200169 -0700,
53,0,53,up,0.3188860000009299,None,None,,,53,0,53,0,267.9447029169987,,,,,,,,,267.93909208399964,267.9447029169987,0.002097624999805703,268.9281043339997,54,1,0.2,0.7,0.5,268.9282984169986,268.93764887499856,268.93764887499856,268.93764887499856,268.93764887499856,269.26306399999885,up,0.3188860000009299,None,up,0.3188860000009299,0.7,1,269.2755175839993,269.28211649999866,269.28211649999866,269.28211649999866,269.28211649999866,271.27044266699886,271.2712240419987,,,,,,271.27141087499876,None,,,NA,NA,271.27155816699997,271.2770309589996,272.2713881669988,272.2767075840002,268.93764887499856,,,,931797,001,2025-08-07_10h38.31.714,regret_experiment,2024.2.4,121.73187944977683,1,0.2,0.7,0.5,2025-08-07 10h38.43.200169 -0700,
54,0,54,up,0.33915041599902906,None,None,,,54,0,54,0,272.2767075840002,,,,,,,,,272.27186633400015,272.2767075840002,0.0003832080001302529,273.27059329199983,55,1,0.2,0.7,0.5,273.2708547919992,273.27584000000024,273.27584000000024,273.27584000000024,273.27584000000024,273.6217962089995,up,0.33915041599902906,None,up,0.33915041599902906,0.7,1,273.63327333399866,273.64065024999945,273.64065024999945,273.64065024999945,273.64065024999945,275.6266799589994,275.62721141699876,,,,,,275.6272439589993,None,,,NA,NA,275.6272910839998,275.6368441249997,276.6222513339999,276.6287597499995,273.27584000000024,,,,931797,001,2025-08-07_10h38.31.714,regret_experiment,2024.2.4,121.73187944977683,1,0.2,0.7,0.5,2025-08-07 10h38.43.200169 -0700,
55,0,55,up,0.29648679199999606,None,None,,,55,0,55,0,276.6287597499995,,,,,,,,,276.62310645899925,276.6287597499995,0.0015857500002312008,277.62060066699996,56,1,0.2,0.7,0.5,277.6208425419991,277.6256874999999,277.6256874999999,277.6256874999999,277.6256874999999,277.92843012499907,up,0.29648679199999606,None,up,0.29648679199999606,0.7,1,277.9404253339999,277.94687150000027,277.94687150000027,277.94687150000027,277.94687150000027,279.93740716699904,279.93847095899946,,,,,,279.9385756669999,None,,,NA,NA,279.9386908340002,279.94334529200023,280.9391059589998,280.946116916999,277.6256874999999,,,,931797,001,2025-08-07_10h38.31.714,regret_experiment,2024.2.4,121.73187944977683,1,0.2,0.7,0.5,2025-08-07 10h38.43.200169 -0700,
56,0,56,up,0.2804158750004717,None,None,,,56,0,56,0,280.946116916999,,,,,,,,,280.9399642919998,280.946116916999,0.0013588750007329509,281.9373128339994,57,1,0.2,0.7,0.5,281.93759341700024,281.9427177919988,281.9427177919988,281.9427177919988,281.9427177919988,282.2274978339992,up,0.2804158750004717,None,up,0.2804158750004717,0.7,1,282.23968366699955,282.246077374999,282.246077374999,282.246077374999,282.246077374999,284.23757079200004,284.23831995899855,,,,,,284.2384164169998,None,,,NA,NA,284.2385319999994,284.24391870900035,285.2373738339993,285.2429739170002,281.9427177919988,,,,931797,001,2025-08-07_10h38.31.714,regret_experiment,2024.2.4,121.73187944977683,1,0.2,0.7,0.5,2025-08-07 10h38.43.200169 -0700,
57,0,57,up,0.3213081249996321,None,None,,,57,0,57,0,285.2429739170002,,,,,,,,,285.237698334,285.2429739170002,-0.0007729579992883373,286.2274501669999,58,1,0.2,0.7,0.5,286.22765724999954,286.23773916699975,286.23773916699975,286.23773916699975,286.23773916699975,286.56053008399977,up,0.3213081249996321,None,up,0.3213081249996321,0.7,0,286.57408612499967,286.58156495899857,286.58156495899857,286.58156495899857,286.58156495899857,288.5610478339986,288.56157987499864,,,,,,288.561606792,None,,,NA,NA,288.56166904199927,288.5715405840001,289.5552654999992,289.5616529589988,286.23773916699975,,,,931797,001,2025-08-07_10h38.31.714,regret_experiment,2024.2.4,121.73187944977683,1,0.2,0.7,0.5,2025-08-07 10h38.43.200169 -0700,
58,0,58,up,0.29725424999924144,None,None,,,58,0,58,0,289.5616529589988,,,,,,,,,289.55603845899896,289.5616529589988,9.20409984246362e-05,290.5543920839991,59,1,0.2,0.7,0.5,290.55467591699926,290.55946258399854,290.55946258399854,290.55946258399854,290.55946258399854,290.8601143340002,up,0.29725424999924144,None,up,0.29725424999924144,0.7,1,290.8716192089996,290.87825058399903,290.87825058399903,290.87825058399903,290.87825058399903,292.8708818340001,292.8717341249994,,,,,,292.87183512499905,None,,,NA,NA,292.8719633339988,292.877517375,293.87186737499906,293.87848099999974,290.55946258399854,,,,931797,001,2025-08-07_10h38.31.714,regret_experiment,2024.2.4,121.73187944977683,1,0.2,0.7,0.5,2025-08-07 10h38.43.200169 -0700,
59,0,59,up,0.25860220799950184,None,None,,,59,0,59,0,293.87848099999974,,,,,,,,,293.8722190839999,293.87848099999974,0.0003223750009055948,294.87044841699935,60,1,0.2,0.7,0.5,294.87076179199903,294.87582049999946,294.87582049999946,294.87582049999946,294.87582049999946,295.13870695900005,up,0.25860220799950184,None,up,0.25860220799950184,0.7,1,295.1503277089996,295.15737266699944,295.15737266699944,295.15737266699944,295.15737266699944,297.14170654199916,297.14219862499885,,,,,,297.1422240419997,None,,,NA,NA,297.14227270899937,297.1536004999998,298.1365395419998,298.18353749999915,294.87582049999946,,,,931797,001,2025-08-07_10h38.31.714,regret_experiment,2024.2.4,121.73187944977683,1,0.2,0.7,0.5,2025-08-07 10h38.43.200169 -0700,
,,,,,,,,,,,,,,,,,,,,,,,,,,,,,,,,,,,,,,,,,,,,,,,,,,,,,,,,,,,,,,,,,,,N/A,298.1722442499995,298.18353749999915,,,,,,,,,,,,
