pid,condition,trial_index,choice,choice_rt,choice_prob,points,regret,regret_rt,tree_1,tree_2,tree_3,totalpoints,final_points,tree_best,tree_medium,tree_worst,choice_goodbad
33706,early_regret,1,1,4.011942666998948,0.2,0,2,2.937841082995874,0.2,0.7,0.5,0,357,2,3,1,worst
33706,early_regret,2,2,0.8584539159928681,0.7,1,NA,NA,0.2,0.7,0.5,1,357,2,3,1,best
33706,early_regret,3,2,0.6601284999924246,0.7,0,2,1.783138375001727,0.2,0.7,0.5,1,357,2,3,1,best
33706,early_regret,4,3,1.4769763329968555,0.5,0,3,1.3562910839973483,0.2,0.7,0.5,1,357,2,3,1,medium
33706,early_regret,5,1,0.8929890829895157,0.2,1,NA,NA,0.2,0.7,0.5,2,357,2,3,1,worst
33706,early_regret,6,2,0.6514379580039531,0.7,1,NA,NA,0.2,0.7,0.5,3,357,2,3,1,best
33706,early_regret,7,3,0.5675991659954889,0.5,0,3,1.5765238750027493,0.2,0.7,0.5,3,357,2,3,1,medium
33706,early_regret,8,2,0.6103529579995666,0.7,0,3,3.4302010829997016,0.2,0.7,0.5,3,357,2,3,1,best
33706,early_regret,9,1,0.41803229101060424,0.2,0,3,0.8769617920042947,0.2,0.7,0.5,3,357,2,3,1,worst
33706,early_regret,10,2,0.6070340420119464,0.7,1,NA,NA,0.2,0.7,0.5,4,357,2,3,1,best
33706,early_regret,11,2,0.3744715840002754,0.7,1,NA,NA,0.2,0.7,0.5,5,357,2,3,1,best
33706,early_regret,12,2,1.2528655829955824,0.7,0,2,0.5960022090002894,0.2,0.7,0.5,5,357,2,3,1,best
33706,early_regret,13,1,0.7458502919907914,0.2,0,3,0.9613476660015294,0.2,0.7,0.5,5,357,2,3,1,worst
33706,early_regret,14,3,0.5056540829973528,0.5,1,NA,NA,0.2,0.7,0.5,6,357,2,3,1,medium
33706,early_regret,15,1,0.3816012910101563,0.2,0,2,0.49356175000139046,0.2,0.7,0.5,6,357,2,3,1,worst
33706,early_regret,16,3,0.9688747089967364,0.5,1,NA,NA,0.2,0.7,0.5,7,357,2,3,1,medium
33706,early_regret,17,2,1.0908114580088295,0.7,0,2,1.0144040000013774,0.2,0.7,0.5,7,357,2,3,1,best
33706,early_regret,18,3,0.6933297920040786,0.5,0,2,1.3823388329910813,0.2,0.7,0.5,7,357,2,3,1,medium
33706,early_regret,19,1,1.0466524170042248,0.2,0,3,1.9539518340025095,0.2,0.7,0.5,7,357,2,3,1,worst
33706,early_regret,20,1,0.5179041660012444,0.2,0,3,1.1410905000084313,0.2,0.7,0.5,7,357,2,3,1,worst
33706,early_regret,21,2,0.3869367500010412,0.7,0,3,1.325171207994572,0.2,0.7,0.5,7,357,2,3,1,best
33706,early_regret,22,3,1.1021953330055112,0.5,1,NA,NA,0.2,0.7,0.5,8,357,2,3,1,medium
33706,early_regret,23,3,0.7667921660031425,0.5,0,2,0.8537929579906631,0.2,0.7,0.5,8,357,2,3,1,medium
33706,early_regret,24,2,0.6280161659960868,0.7,0,2,1.659005208988674,0.2,0.7,0.5,8,357,2,3,1,best
33706,early_regret,25,1,0.4236154579994036,0.2,0,3,0.7670698750007432,0.2,0.7,0.5,8,357,2,3,1,worst
33706,early_regret,26,2,0.7185764579917304,0.7,1,NA,NA,0.2,0.7,0.5,9,357,2,3,1,best
33706,early_regret,27,1,0.5843989579880144,0.2,0,2,0.9220996249932796,0.2,0.7,0.5,9,357,2,3,1,worst
33706,early_regret,28,2,0.4517108339932747,0.7,0,3,1.3153405409975676,0.2,0.7,0.5,9,357,2,3,1,best
33706,early_regret,29,3,0.9441268329974264,0.5,0,3,0.7041884999925969,0.2,0.7,0.5,9,357,2,3,1,medium
33706,early_regret,30,2,0.9016981669992674,0.7,1,NA,NA,0.2,0.7,0.5,10,357,2,3,1,best
33706,early_regret,31,2,0.6817422079911921,0.7,1,NA,NA,0.2,0.7,0.5,11,357,2,3,1,best
33706,early_regret,32,2,0.5241098340047756,0.7,1,NA,NA,0.2,0.7,0.5,12,357,2,3,1,best
33706,early_regret,33,2,0.5037912080006208,0.7,1,NA,NA,0.2,0.7,0.5,13,357,2,3,1,best
33706,early_regret,34,2,0.3477547910006251,0.7,1,NA,NA,0.2,0.7,0.5,14,357,2,3,1,best
33706,early_regret,35,2,0.8523970829992322,0.7,1,NA,NA,0.2,0.7,0.5,15,357,2,3,1,best
33706,early_regret,36,2,1.0977905409963569,0.7,1,NA,NA,0.2,0.7,0.5,16,357,2,3,1,best
33706,early_regret,37,2,0.7281724579952424,0.7,0,NA,NA,0.2,0.7,0.5,16,357,2,3,1,best
33706,early_regret,38,1,0.6465847500076052,0.2,0,NA,NA,0.2,0.7,0.5,16,357,2,3,1,worst
33706,early_regret,39,2,0.6776037910021842,0.7,0,NA,NA,0.2,0.7,0.5,16,357,2,3,1,best
33706,early_regret,40,3,0.5999109580006916,0.5,0,NA,NA,0.2,0.7,0.5,16,357,2,3,1,medium
33706,early_regret,41,2,0.4182762910058955,0.7,1,NA,NA,0.2,0.7,0.5,17,357,2,3,1,best
33706,early_regret,42,2,0.5826043749984819,0.7,0,NA,NA,0.2,0.7,0.5,17,357,2,3,1,best
33706,early_regret,43,1,0.5444152499985648,0.2,0,NA,NA,0.2,0.7,0.5,17,357,2,3,1,worst
33706,early_regret,44,3,1.2478689999989,0.5,0,NA,NA,0.2,0.7,0.5,17,357,2,3,1,medium
33706,early_regret,45,2,0.7845889589953003,0.7,1,NA,NA,0.2,0.7,0.5,18,357,2,3,1,best
33706,early_regret,46,2,0.3096534590004012,0.7,1,NA,NA,0.2,0.7,0.5,19,357,2,3,1,best
33706,early_regret,47,2,0.6563629169977503,0.7,1,NA,NA,0.2,0.7,0.5,20,357,2,3,1,best
33706,early_regret,48,2,0.4641472499934025,0.7,1,NA,NA,0.2,0.7,0.5,21,357,2,3,1,best
33706,early_regret,49,2,0.5379981669975678,0.7,0,NA,NA,0.2,0.7,0.5,21,357,2,3,1,best
33706,early_regret,50,2,0.49345387499488425,0.7,0,NA,NA,0.2,0.7,0.5,21,357,2,3,1,best
33706,early_regret,51,3,0.48818858299637213,0.5,0,NA,NA,0.2,0.7,0.5,21,357,2,3,1,medium
33706,early_regret,52,1,1.2068598330079112,0.2,0,NA,NA,0.2,0.7,0.5,21,357,2,3,1,worst
33706,early_regret,53,2,0.41077508400485385,0.7,1,NA,NA,0.2,0.7,0.5,22,357,2,3,1,best
33706,early_regret,54,2,0.4766844590049004,0.7,0,NA,NA,0.2,0.7,0.5,22,357,2,3,1,best
33706,early_regret,55,1,0.3602313339943066,0.2,0,NA,NA,0.2,0.7,0.5,22,357,2,3,1,worst
33706,early_regret,56,2,0.727792750010849,0.7,0,NA,NA,0.2,0.7,0.5,22,357,2,3,1,best
33706,early_regret,57,3,0.9615979169902856,0.5,0,NA,NA,0.2,0.7,0.5,22,357,2,3,1,medium
33706,early_regret,58,2,0.45340062500326894,0.7,1,NA,NA,0.2,0.7,0.5,23,357,2,3,1,best
33706,early_regret,59,1,0.4826718340045773,0.2,0,NA,NA,0.2,0.7,0.5,23,357,2,3,1,worst
33706,early_regret,60,2,0.8781085000082385,0.7,1,NA,NA,0.2,0.7,0.5,24,357,2,3,1,best
33775,early_regret,1,2,1.3874832919682376,0.7,0,1,3.838974291982595,0.5,0.7,0.2,24,357,2,1,3,best
33775,early_regret,2,3,1.0465556670096705,0.2,0,1,1.9774963749805463,0.5,0.7,0.2,24,357,2,1,3,worst
33775,early_regret,3,1,0.602830666990485,0.5,0,1,1.988209041999653,0.5,0.7,0.2,24,357,2,1,3,medium
33775,early_regret,4,2,0.6810045830206946,0.7,0,1,2.7175295000197366,0.5,0.7,0.2,24,357,2,1,3,best
33775,early_regret,5,1,1.0081274170079269,0.5,1,NA,NA,0.5,0.7,0.2,25,357,2,1,3,medium
33775,early_regret,6,1,1.0221946249948817,0.5,1,NA,NA,0.5,0.7,0.2,26,357,2,1,3,medium
33775,early_regret,7,1,0.5442497910116799,0.5,1,NA,NA,0.5,0.7,0.2,27,357,2,1,3,medium
33775,early_regret,8,1,1.0091162090539,0.5,0,1,2.630407665972598,0.5,0.7,0.2,27,357,2,1,3,medium
33775,early_regret,9,3,0.8580950000323355,0.2,1,NA,NA,0.5,0.7,0.2,28,357,2,1,3,worst
33775,early_regret,10,3,1.2404657499864695,0.2,1,NA,NA,0.5,0.7,0.2,29,357,2,1,3,worst
33775,early_regret,11,3,0.8134530839743093,0.2,0,1,1.8798358329804616,0.5,0.7,0.2,29,357,2,1,3,worst
33775,early_regret,12,2,0.7220159160206094,0.7,1,NA,NA,0.5,0.7,0.2,30,357,2,1,3,best
33775,early_regret,13,2,0.6020648749545217,0.7,1,NA,NA,0.5,0.7,0.2,31,357,2,1,3,best
33775,early_regret,14,2,0.5720432499656454,0.7,0,1,1.505875915987417,0.5,0.7,0.2,31,357,2,1,3,best
33775,early_regret,15,3,0.6947137080132961,0.2,0,1,1.2418278750265015,0.5,0.7,0.2,31,357,2,1,3,worst
33775,early_regret,16,1,0.43225095799425617,0.5,0,1,0.722020709014032,0.5,0.7,0.2,31,357,2,1,3,medium
33775,early_regret,17,2,0.5518683330155909,0.7,0,1,0.8456654170295224,0.5,0.7,0.2,31,357,2,1,3,best
33775,early_regret,18,2,0.600330000044778,0.7,1,NA,NA,0.5,0.7,0.2,32,357,2,1,3,best
33775,early_regret,19,3,0.5673181249876507,0.2,0,1,3.248912416980602,0.5,0.7,0.2,32,357,2,1,3,worst
33775,early_regret,20,2,0.6234857910312712,0.7,1,NA,NA,0.5,0.7,0.2,33,357,2,1,3,best
33775,early_regret,21,2,0.6304741250351071,0.7,1,NA,NA,0.5,0.7,0.2,34,357,2,1,3,best
33775,early_regret,22,2,0.48987091600429267,0.7,0,1,3.6778610830078833,0.5,0.7,0.2,34,357,2,1,3,best
33775,early_regret,23,1,0.6272729999618605,0.5,0,1,3.6346842920174822,0.5,0.7,0.2,34,357,2,1,3,medium
33775,early_regret,24,3,2.029524040990509,0.2,0,2,1.083297125005629,0.5,0.7,0.2,34,357,2,1,3,worst
33775,early_regret,25,1,0.73989766696468,0.5,0,1,2.3129882909706794,0.5,0.7,0.2,34,357,2,1,3,medium
33775,early_regret,26,2,0.5870809170301072,0.7,1,NA,NA,0.5,0.7,0.2,35,357,2,1,3,best
33775,early_regret,27,2,2.119735209038481,0.7,1,NA,NA,0.5,0.7,0.2,36,357,2,1,3,best
33775,early_regret,28,2,0.9237783750286326,0.7,1,NA,NA,0.5,0.7,0.2,37,357,2,1,3,best
33775,early_regret,29,2,0.8233257090323605,0.7,0,2,2.1041621660115197,0.5,0.7,0.2,37,357,2,1,3,best
33775,early_regret,30,3,0.5695156250149012,0.2,0,2,1.1722122500068508,0.5,0.7,0.2,37,357,2,1,3,worst
33775,early_regret,31,1,1.148294500017073,0.5,1,NA,NA,0.5,0.7,0.2,38,357,2,1,3,medium
33775,early_regret,32,1,0.8248289170442149,0.5,1,NA,NA,0.5,0.7,0.2,39,357,2,1,3,medium
33775,early_regret,33,1,0.49903804098721594,0.5,1,NA,NA,0.5,0.7,0.2,40,357,2,1,3,medium
33775,early_regret,34,3,1.1024506249814294,0.2,0,NA,NA,0.5,0.7,0.2,40,357,2,1,3,worst
33775,early_regret,35,2,0.8338133340002969,0.7,1,NA,NA,0.5,0.7,0.2,41,357,2,1,3,best
33775,early_regret,36,2,0.8865373749868013,0.7,1,NA,NA,0.5,0.7,0.2,42,357,2,1,3,best
33775,early_regret,37,1,0.6022523749852553,0.5,0,NA,NA,0.5,0.7,0.2,42,357,2,1,3,medium
33775,early_regret,38,2,0.6995064590009861,0.7,1,NA,NA,0.5,0.7,0.2,43,357,2,1,3,best
33775,early_regret,39,2,1.0103309589903802,0.7,0,NA,NA,0.5,0.7,0.2,43,357,2,1,3,best
33775,early_regret,40,3,0.4453384169610217,0.2,1,NA,NA,0.5,0.7,0.2,44,357,2,1,3,worst
33775,early_regret,41,3,0.6566365830367431,0.2,0,NA,NA,0.5,0.7,0.2,44,357,2,1,3,worst
33775,early_regret,42,1,0.4397183330147527,0.5,0,NA,NA,0.5,0.7,0.2,44,357,2,1,3,medium
33775,early_regret,43,2,0.5662397079868242,0.7,0,NA,NA,0.5,0.7,0.2,44,357,2,1,3,best
33775,early_regret,44,2,0.8600384999881499,0.7,1,NA,NA,0.5,0.7,0.2,45,357,2,1,3,best
33775,early_regret,45,3,0.4655677499831654,0.2,0,NA,NA,0.5,0.7,0.2,45,357,2,1,3,worst
33775,early_regret,46,1,0.5674506250070408,0.5,0,NA,NA,0.5,0.7,0.2,45,357,2,1,3,medium
33775,early_regret,47,1,0.48266741703264415,0.5,0,NA,NA,0.5,0.7,0.2,45,357,2,1,3,medium
33775,early_regret,48,2,0.5384826249792241,0.7,1,NA,NA,0.5,0.7,0.2,46,357,2,1,3,best
33775,early_regret,49,2,1.5066214579856023,0.7,1,NA,NA,0.5,0.7,0.2,47,357,2,1,3,best
33775,early_regret,50,2,0.8744735000072978,0.7,1,NA,NA,0.5,0.7,0.2,48,357,2,1,3,best
33775,early_regret,51,3,0.6236783749773167,0.2,1,NA,NA,0.5,0.7,0.2,49,357,2,1,3,worst
33775,early_regret,52,3,0.6047828330192715,0.2,1,NA,NA,0.5,0.7,0.2,50,357,2,1,3,worst
33775,early_regret,53,1,0.6464428339968435,0.5,1,NA,NA,0.5,0.7,0.2,51,357,2,1,3,medium
33775,early_regret,54,1,0.9099813749780878,0.5,0,NA,NA,0.5,0.7,0.2,51,357,2,1,3,medium
33775,early_regret,55,2,0.8066032499773428,0.7,1,NA,NA,0.5,0.7,0.2,52,357,2,1,3,best
33775,early_regret,56,2,1.0866567500052042,0.7,1,NA,NA,0.5,0.7,0.2,53,357,2,1,3,best
33775,early_regret,57,2,0.7813159590004943,0.7,0,NA,NA,0.5,0.7,0.2,53,357,2,1,3,best
33775,early_regret,58,3,0.5596621670410968,0.2,0,NA,NA,0.5,0.7,0.2,53,357,2,1,3,worst
33775,early_regret,59,3,1.4966320419916883,0.2,0,NA,NA,0.5,0.7,0.2,53,357,2,1,3,worst
33775,early_regret,60,2,0.7905373749672435,0.7,0,NA,NA,0.5,0.7,0.2,53,357,2,1,3,best
33799,early_regret,1,3,2.700069499995152,0.2,1,NA,NA,0.7,0.5,0.2,54,357,1,2,3,worst
33799,early_regret,2,2,1.3965862919940264,0.5,0,1,3.659857582999394,0.7,0.5,0.2,54,357,1,2,3,medium
33799,early_regret,3,2,1.256424999999581,0.5,1,NA,NA,0.7,0.5,0.2,55,357,1,2,3,medium
33799,early_regret,4,3,0.8227294999960577,0.2,0,2,1.162454500001331,0.7,0.5,0.2,55,357,1,2,3,worst
33799,early_regret,5,1,0.8995149580005091,0.7,1,NA,NA,0.7,0.5,0.2,56,357,1,2,3,best
33799,early_regret,6,1,0.968291750003118,0.7,1,NA,NA,0.7,0.5,0.2,57,357,1,2,3,best
33799,early_regret,7,2,0.8488741659966763,0.5,1,NA,NA,0.7,0.5,0.2,58,357,1,2,3,medium
33799,early_regret,8,2,1.4854789999953937,0.5,0,1,0.9352497919971938,0.7,0.5,0.2,58,357,1,2,3,medium
33799,early_regret,9,3,0.49347649999981513,0.2,0,1,0.7186338749961578,0.7,0.5,0.2,58,357,1,2,3,worst
33799,early_regret,10,2,0.6164833330039983,0.5,0,2,0.8939493329962716,0.7,0.5,0.2,58,357,1,2,3,medium
33799,early_regret,11,3,1.777507958999195,0.2,0,2,1.1775662080035545,0.7,0.5,0.2,58,357,1,2,3,worst
33799,early_regret,12,2,0.7370350829951349,0.5,1,NA,NA,0.7,0.5,0.2,59,357,1,2,3,medium
33799,early_regret,13,3,0.9557199160044548,0.2,0,1,0.5431486670058803,0.7,0.5,0.2,59,357,1,2,3,worst
33799,early_regret,14,1,0.893042499999865,0.7,1,NA,NA,0.7,0.5,0.2,60,357,1,2,3,best
33799,early_regret,15,1,0.6603448750029202,0.7,1,NA,NA,0.7,0.5,0.2,61,357,1,2,3,best
33799,early_regret,16,2,1.3282324169995263,0.5,1,NA,NA,0.7,0.5,0.2,62,357,1,2,3,medium
33799,early_regret,17,3,0.5443396250047954,0.2,0,1,0.5158717080048518,0.7,0.5,0.2,62,357,1,2,3,worst
33799,early_regret,18,1,0.6443898329962394,0.7,0,1,0.6007781669977703,0.7,0.5,0.2,62,357,1,2,3,best
33799,early_regret,19,2,0.5599915839993628,0.5,0,1,2.0624622920004185,0.7,0.5,0.2,62,357,1,2,3,medium
33799,early_regret,20,3,0.6378603749981266,0.2,0,2,0.3948934170039138,0.7,0.5,0.2,62,357,1,2,3,worst
33799,early_regret,21,2,0.6264636249979958,0.5,1,NA,NA,0.7,0.5,0.2,63,357,1,2,3,medium
33799,early_regret,22,1,0.3291281670026365,0.7,1,NA,NA,0.7,0.5,0.2,64,357,1,2,3,best
33799,early_regret,23,2,0.3006755829992471,0.5,1,NA,NA,0.7,0.5,0.2,65,357,1,2,3,medium
33799,early_regret,24,2,0.3013199579945649,0.5,1,NA,NA,0.7,0.5,0.2,66,357,1,2,3,medium
33799,early_regret,25,3,0.3385796670045238,0.2,0,2,1.115409041995008,0.7,0.5,0.2,66,357,1,2,3,worst
33799,early_regret,26,1,0.5166074589942582,0.7,1,NA,NA,0.7,0.5,0.2,67,357,1,2,3,best
33799,early_regret,27,3,0.3363417080036015,0.2,0,1,0.5318055000025197,0.7,0.5,0.2,67,357,1,2,3,worst
33799,early_regret,28,1,0.3641512920003151,0.7,0,1,0.4521290000047884,0.7,0.5,0.2,67,357,1,2,3,best
33799,early_regret,29,1,0.45069274999696063,0.7,0,1,0.46626979199936613,0.7,0.5,0.2,67,357,1,2,3,best
33799,early_regret,30,1,0.384638832998462,0.7,1,NA,NA,0.7,0.5,0.2,68,357,1,2,3,best
33799,early_regret,31,2,0.5042501669959165,0.5,1,NA,NA,0.7,0.5,0.2,69,357,1,2,3,medium
33799,early_regret,32,1,0.4545328750027693,0.7,1,NA,NA,0.7,0.5,0.2,70,357,1,2,3,best
33799,early_regret,33,1,0.33084579199930886,0.7,1,NA,NA,0.7,0.5,0.2,71,357,1,2,3,best
33799,early_regret,34,2,0.44409429100051057,0.5,1,NA,NA,0.7,0.5,0.2,72,357,1,2,3,medium
33799,early_regret,35,2,0.4892113329988206,0.5,1,NA,NA,0.7,0.5,0.2,73,357,1,2,3,medium
33799,early_regret,36,1,0.25215050000406336,0.7,1,NA,NA,0.7,0.5,0.2,74,357,1,2,3,best
33799,early_regret,37,3,0.33087870799499797,0.2,0,NA,NA,0.7,0.5,0.2,74,357,1,2,3,worst
33799,early_regret,38,1,1.476092042001255,0.7,1,NA,NA,0.7,0.5,0.2,75,357,1,2,3,best
33799,early_regret,39,2,0.6016833329995279,0.5,0,NA,NA,0.7,0.5,0.2,75,357,1,2,3,medium
33799,early_regret,40,1,0.4389299590038718,0.7,1,NA,NA,0.7,0.5,0.2,76,357,1,2,3,best
33799,early_regret,41,3,0.3339899589991546,0.2,0,NA,NA,0.7,0.5,0.2,76,357,1,2,3,worst
33799,early_regret,42,2,0.45749612499639625,0.5,0,NA,NA,0.7,0.5,0.2,76,357,1,2,3,medium
33799,early_regret,43,2,0.5522231249997276,0.5,1,NA,NA,0.7,0.5,0.2,77,357,1,2,3,medium
33799,early_regret,44,1,0.45544599999993807,0.7,1,NA,NA,0.7,0.5,0.2,78,357,1,2,3,best
33799,early_regret,45,2,0.3324213750020135,0.5,1,NA,NA,0.7,0.5,0.2,79,357,1,2,3,medium
33799,early_regret,46,3,0.35072333400603384,0.2,0,NA,NA,0.7,0.5,0.2,79,357,1,2,3,worst
33799,early_regret,47,1,0.6551657500021975,0.7,1,NA,NA,0.7,0.5,0.2,80,357,1,2,3,best
33799,early_regret,48,2,0.3101402500033146,0.5,1,NA,NA,0.7,0.5,0.2,81,357,1,2,3,medium
33799,early_regret,49,1,0.3673672500008251,0.7,1,NA,NA,0.7,0.5,0.2,82,357,1,2,3,best
33799,early_regret,50,1,0.3263516660008463,0.7,1,NA,NA,0.7,0.5,0.2,83,357,1,2,3,best
33799,early_regret,51,2,0.24458112499996787,0.5,1,NA,NA,0.7,0.5,0.2,84,357,1,2,3,medium
33799,early_regret,52,2,0.2874310840052203,0.5,0,NA,NA,0.7,0.5,0.2,84,357,1,2,3,medium
33799,early_regret,53,2,0.2626838329961174,0.5,1,NA,NA,0.7,0.5,0.2,85,357,1,2,3,medium
33799,early_regret,54,1,0.31922550000308547,0.7,1,NA,NA,0.7,0.5,0.2,86,357,1,2,3,best
33799,early_regret,55,1,0.29795287500019185,0.7,0,NA,NA,0.7,0.5,0.2,86,357,1,2,3,best
33799,early_regret,56,3,0.351517374998366,0.2,1,NA,NA,0.7,0.5,0.2,87,357,1,2,3,worst
33799,early_regret,57,3,0.35185824999643955,0.2,1,NA,NA,0.7,0.5,0.2,88,357,1,2,3,worst
33799,early_regret,58,1,0.3931715409999015,0.7,1,NA,NA,0.7,0.5,0.2,89,357,1,2,3,best
33799,early_regret,59,3,0.5213265839993255,0.2,0,NA,NA,0.7,0.5,0.2,89,357,1,2,3,worst
33799,early_regret,60,2,0.694431291994988,0.5,0,NA,NA,0.7,0.5,0.2,89,357,1,2,3,medium
33835,early_regret,1,2,8.278200249988004,0.5,1,NA,NA,0.7,0.5,0.2,90,357,1,2,3,medium
33835,early_regret,2,2,0.8852317499986384,0.5,1,NA,NA,0.7,0.5,0.2,91,357,1,2,3,medium
33835,early_regret,3,2,0.5860311249998631,0.5,1,NA,NA,0.7,0.5,0.2,92,357,1,2,3,medium
33835,early_regret,4,2,1.8969033750036033,0.5,0,1,2.834282667012303,0.7,0.5,0.2,92,357,1,2,3,medium
33835,early_regret,5,2,0.09023262500704732,0.5,0,3,1.251625040997169,0.7,0.5,0.2,92,357,1,2,3,medium
33835,early_regret,6,3,0.3955468339991058,0.2,0,3,0.992292417009594,0.7,0.5,0.2,92,357,1,2,3,worst
33835,early_regret,7,1,0.44027587500750087,0.7,0,3,0.7371119170129532,0.7,0.5,0.2,92,357,1,2,3,best
33835,early_regret,8,2,0.3262838329974329,0.5,1,NA,NA,0.7,0.5,0.2,93,357,1,2,3,medium
33835,early_regret,9,3,0.8735052090050885,0.2,0,3,1.0731479170062812,0.7,0.5,0.2,93,357,1,2,3,worst
33835,early_regret,10,2,0.4159908750007162,0.5,0,3,0.8106326249981066,0.7,0.5,0.2,93,357,1,2,3,medium
33835,early_regret,11,1,0.9047414160013432,0.7,1,NA,NA,0.7,0.5,0.2,94,357,1,2,3,best
33835,early_regret,12,2,1.49510979099432,0.5,1,NA,NA,0.7,0.5,0.2,95,357,1,2,3,medium
33835,early_regret,13,1,0.6295272089919308,0.7,1,NA,NA,0.7,0.5,0.2,96,357,1,2,3,best
33835,early_regret,14,2,0.4038712920009857,0.5,1,NA,NA,0.7,0.5,0.2,97,357,1,2,3,medium
33835,early_regret,15,1,0.7795374999986961,0.7,0,3,0.7577647919970332,0.7,0.5,0.2,97,357,1,2,3,best
33835,early_regret,16,2,0.46946487500099465,0.5,1,NA,NA,0.7,0.5,0.2,98,357,1,2,3,medium
33835,early_regret,17,2,1.223590209003305,0.5,1,NA,NA,0.7,0.5,0.2,99,357,1,2,3,medium
33835,early_regret,18,2,0.712335708012688,0.5,0,2,0.4729878340003779,0.7,0.5,0.2,99,357,1,2,3,medium
33835,early_regret,19,1,0.42094799999904353,0.7,0,2,0.6280162089969963,0.7,0.5,0.2,99,357,1,2,3,best
33835,early_regret,20,2,0.4643843329977244,0.5,0,2,0.5885083329922054,0.7,0.5,0.2,99,357,1,2,3,medium
33835,early_regret,21,3,0.3555612909985939,0.2,0,3,0.3206816669990076,0.7,0.5,0.2,99,357,1,2,3,worst
33835,early_regret,22,1,0.272182458997122,0.7,1,NA,NA,0.7,0.5,0.2,100,357,1,2,3,best
33835,early_regret,23,1,0.45610158299678005,0.7,1,NA,NA,0.7,0.5,0.2,101,357,1,2,3,best
33835,early_regret,24,2,0.3174755000072764,0.5,1,NA,NA,0.7,0.5,0.2,102,357,1,2,3,medium
33835,early_regret,25,2,0.31250358300167136,0.5,0,3,0.782176916996832,0.7,0.5,0.2,102,357,1,2,3,medium
33835,early_regret,26,1,0.463017582995235,0.7,1,NA,NA,0.7,0.5,0.2,103,357,1,2,3,best
33835,early_regret,27,1,0.9552765420085052,0.7,0,2,0.4124069169920403,0.7,0.5,0.2,103,357,1,2,3,best
33835,early_regret,28,2,0.27771358301106375,0.5,0,2,0.597869332996197,0.7,0.5,0.2,103,357,1,2,3,medium
33835,early_regret,29,1,0.215079165995121,0.7,1,NA,NA,0.7,0.5,0.2,104,357,1,2,3,best
33835,early_regret,30,1,1.5769122499914374,0.7,1,NA,NA,0.7,0.5,0.2,105,357,1,2,3,best
33835,early_regret,31,2,0.32857545900333207,0.5,1,NA,NA,0.7,0.5,0.2,106,357,1,2,3,medium
33835,early_regret,32,1,2.4022093340026913,0.7,1,NA,NA,0.7,0.5,0.2,107,357,1,2,3,best
33835,early_regret,33,2,1.136576167002204,0.5,0,NA,NA,0.7,0.5,0.2,107,357,1,2,3,medium
33835,early_regret,34,1,1.4446707500028424,0.7,1,NA,NA,0.7,0.5,0.2,108,357,1,2,3,best
33835,early_regret,35,2,1.5840284579899162,0.5,0,NA,NA,0.7,0.5,0.2,108,357,1,2,3,medium
33835,early_regret,36,1,0.6307154589885613,0.7,0,NA,NA,0.7,0.5,0.2,108,357,1,2,3,best
33835,early_regret,37,2,0.5897792500036303,0.5,1,NA,NA,0.7,0.5,0.2,109,357,1,2,3,medium
33835,early_regret,38,2,1.085287875001086,0.5,0,NA,NA,0.7,0.5,0.2,109,357,1,2,3,medium
33835,early_regret,39,1,1.0899251660011942,0.7,1,NA,NA,0.7,0.5,0.2,110,357,1,2,3,best
33835,early_regret,40,1,0.29583275000914,0.7,1,NA,NA,0.7,0.5,0.2,111,357,1,2,3,best
33835,early_regret,41,2,0.3936296250030864,0.5,1,NA,NA,0.7,0.5,0.2,112,357,1,2,3,medium
33835,early_regret,42,3,0.41090762500243727,0.2,0,NA,NA,0.7,0.5,0.2,112,357,1,2,3,worst
33835,early_regret,43,1,1.5424263329914538,0.7,1,NA,NA,0.7,0.5,0.2,113,357,1,2,3,best
33835,early_regret,44,1,0.5609729579882696,0.7,1,NA,NA,0.7,0.5,0.2,114,357,1,2,3,best
33835,early_regret,45,2,0.37076854199403897,0.5,0,NA,NA,0.7,0.5,0.2,114,357,1,2,3,medium
33835,early_regret,46,1,1.234763667001971,0.7,1,NA,NA,0.7,0.5,0.2,115,357,1,2,3,best
33835,early_regret,47,2,0.31275250000180677,0.5,0,NA,NA,0.7,0.5,0.2,115,357,1,2,3,medium
33835,early_regret,48,1,0.34368141600862145,0.7,0,NA,NA,0.7,0.5,0.2,115,357,1,2,3,best
33835,early_regret,49,2,0.35093087499262765,0.5,0,NA,NA,0.7,0.5,0.2,115,357,1,2,3,medium
33835,early_regret,50,2,0.4394149580039084,0.5,1,NA,NA,0.7,0.5,0.2,116,357,1,2,3,medium
33835,early_regret,51,2,0.34516716698999517,0.5,0,NA,NA,0.7,0.5,0.2,116,357,1,2,3,medium
33835,early_regret,52,1,0.6553098329895874,0.7,1,NA,NA,0.7,0.5,0.2,117,357,1,2,3,best
33835,early_regret,53,1,0.6788514579966431,0.7,1,NA,NA,0.7,0.5,0.2,118,357,1,2,3,best
33835,early_regret,54,1,0.5277303339971695,0.7,0,NA,NA,0.7,0.5,0.2,118,357,1,2,3,best
33835,early_regret,55,2,0.5020492500043474,0.5,0,NA,NA,0.7,0.5,0.2,118,357,1,2,3,medium
33835,early_regret,56,3,0.3844842910039006,0.2,0,NA,NA,0.7,0.5,0.2,118,357,1,2,3,worst
33835,early_regret,57,2,0.822749750004732,0.5,0,NA,NA,0.7,0.5,0.2,118,357,1,2,3,medium
33835,early_regret,58,1,0.38952487500500865,0.7,1,NA,NA,0.7,0.5,0.2,119,357,1,2,3,best
33835,early_regret,59,1,0.29439708300924394,0.7,0,NA,NA,0.7,0.5,0.2,119,357,1,2,3,best
33835,early_regret,60,2,0.2563250419916585,0.5,0,NA,NA,0.7,0.5,0.2,119,357,1,2,3,medium
33928,control,1,2,1.4257336250011576,0.7,0,NA,NA,NA,NA,NA,119,357,NA,NA,NA,NA
33928,control,2,3,1.11819458300306,0.2,0,NA,NA,NA,NA,NA,119,357,NA,NA,NA,NA
33928,control,3,3,1.1388947919986094,0.2,0,NA,NA,NA,NA,NA,119,357,NA,NA,NA,NA
33928,control,4,1,0.4264783329999773,0.5,0,NA,NA,NA,NA,NA,119,357,NA,NA,NA,NA
33928,control,5,1,1.2464157499998691,0.5,1,NA,NA,NA,NA,NA,120,357,NA,NA,NA,NA
33928,control,6,2,0.4463584999975865,0.7,1,NA,NA,NA,NA,NA,121,357,NA,NA,NA,NA
33928,control,7,1,0.4130146669995156,0.5,1,NA,NA,NA,NA,NA,122,357,NA,NA,NA,NA
33928,control,8,1,0.5642809170021792,0.5,0,NA,NA,NA,NA,NA,122,357,NA,NA,NA,NA
33928,control,9,3,0.48481270800402854,0.2,0,NA,NA,NA,NA,NA,122,357,NA,NA,NA,NA
33928,control,10,1,0.36062091599887935,0.5,1,NA,NA,NA,NA,NA,123,357,NA,NA,NA,NA
33928,control,11,2,0.4838789999994333,0.7,1,NA,NA,NA,NA,NA,124,357,NA,NA,NA,NA
33928,control,12,1,0.23037374999694293,0.5,0,NA,NA,NA,NA,NA,124,357,NA,NA,NA,NA
33928,control,13,1,0.1900209579980583,0.5,1,NA,NA,NA,NA,NA,125,357,NA,NA,NA,NA
33928,control,14,2,0.23606724999990547,0.7,0,NA,NA,NA,NA,NA,125,357,NA,NA,NA,NA
33928,control,15,2,0.5379347919952124,0.7,1,NA,NA,NA,NA,NA,126,357,NA,NA,NA,NA
33928,control,16,2,0.245917708001798,0.7,1,NA,NA,NA,NA,NA,127,357,NA,NA,NA,NA
33928,control,17,1,0.23550404099660227,0.5,0,NA,NA,NA,NA,NA,127,357,NA,NA,NA,NA
33928,control,18,1,0.27244591699854936,0.5,0,NA,NA,NA,NA,NA,127,357,NA,NA,NA,NA
33928,control,19,2,0.3892919579957379,0.7,0,NA,NA,NA,NA,NA,127,357,NA,NA,NA,NA
33928,control,20,2,1.3352604589963448,0.7,0,NA,NA,NA,NA,NA,127,357,NA,NA,NA,NA
33928,control,21,1,0.39635733400064055,0.5,1,NA,NA,NA,NA,NA,128,357,NA,NA,NA,NA
33928,control,22,2,0.37490695800079266,0.7,1,NA,NA,NA,NA,NA,129,357,NA,NA,NA,NA
33928,control,23,2,0.36793362499884097,0.7,1,NA,NA,NA,NA,NA,130,357,NA,NA,NA,NA
33928,control,24,1,0.2869779999964521,0.5,0,NA,NA,NA,NA,NA,130,357,NA,NA,NA,NA
33928,control,25,1,0.3890974579990143,0.5,0,NA,NA,NA,NA,NA,130,357,NA,NA,NA,NA
33928,control,26,2,1.4371701670024777,0.7,1,NA,NA,NA,NA,NA,131,357,NA,NA,NA,NA
33928,control,27,3,0.8342667500037351,0.2,0,NA,NA,NA,NA,NA,131,357,NA,NA,NA,NA
33928,control,28,2,0.9202383750016452,0.7,1,NA,NA,NA,NA,NA,132,357,NA,NA,NA,NA
33928,control,29,1,0.23621362500125545,0.5,1,NA,NA,NA,NA,NA,133,357,NA,NA,NA,NA
33928,control,30,2,0.312926583996159,0.7,1,NA,NA,NA,NA,NA,134,357,NA,NA,NA,NA
33928,control,31,2,0.2600694580032723,0.7,0,NA,NA,NA,NA,NA,134,357,NA,NA,NA,NA
33928,control,32,2,0.4323084579955321,0.7,1,NA,NA,NA,NA,NA,135,357,NA,NA,NA,NA
33928,control,33,1,0.25570354200317524,0.5,0,NA,NA,NA,NA,NA,135,357,NA,NA,NA,NA
33928,control,34,1,0.4035126249946188,0.5,0,NA,NA,NA,NA,NA,135,357,NA,NA,NA,NA
33928,control,35,2,0.4112996250041761,0.7,0,NA,NA,NA,NA,NA,135,357,NA,NA,NA,NA
33928,control,36,2,1.2098818750018836,0.7,0,NA,NA,NA,NA,NA,135,357,NA,NA,NA,NA
33928,control,37,2,0.5995160419988679,0.7,1,NA,NA,NA,NA,NA,136,357,NA,NA,NA,NA
33928,control,38,2,0.696873750006489,0.7,1,NA,NA,NA,NA,NA,137,357,NA,NA,NA,NA
33928,control,39,2,0.795143667004595,0.7,1,NA,NA,NA,NA,NA,138,357,NA,NA,NA,NA
33928,control,40,1,0.46625516699714353,0.5,1,NA,NA,NA,NA,NA,139,357,NA,NA,NA,NA
33928,control,41,2,0.8019419999982347,0.7,1,NA,NA,NA,NA,NA,140,357,NA,NA,NA,NA
33928,control,42,2,0.9586062090020278,0.7,1,NA,NA,NA,NA,NA,141,357,NA,NA,NA,NA
33928,control,43,1,0.5441699590010103,0.5,1,NA,NA,NA,NA,NA,142,357,NA,NA,NA,NA
33928,control,44,1,0.49769254199782154,0.5,1,NA,NA,NA,NA,NA,143,357,NA,NA,NA,NA
33928,control,45,2,0.33386433299892815,0.7,0,NA,NA,NA,NA,NA,143,357,NA,NA,NA,NA
33928,control,46,2,0.6784842920023948,0.7,1,NA,NA,NA,NA,NA,144,357,NA,NA,NA,NA
33928,control,47,2,0.2851660840024124,0.7,0,NA,NA,NA,NA,NA,144,357,NA,NA,NA,NA
33928,control,48,1,0.7221742090041516,0.5,1,NA,NA,NA,NA,NA,145,357,NA,NA,NA,NA
33928,control,49,1,0.35370654099824606,0.5,1,NA,NA,NA,NA,NA,146,357,NA,NA,NA,NA
33928,control,50,2,0.5008570420031901,0.7,1,NA,NA,NA,NA,NA,147,357,NA,NA,NA,NA
33928,control,51,1,0.383120083999529,0.5,0,NA,NA,NA,NA,NA,147,357,NA,NA,NA,NA
33928,control,52,2,0.7678585829999065,0.7,1,NA,NA,NA,NA,NA,148,357,NA,NA,NA,NA
33928,control,53,1,0.3130435830025817,0.5,1,NA,NA,NA,NA,NA,149,357,NA,NA,NA,NA
33928,control,54,1,0.67748583300272,0.5,1,NA,NA,NA,NA,NA,150,357,NA,NA,NA,NA
33928,control,55,2,0.43796833300439175,0.7,1,NA,NA,NA,NA,NA,151,357,NA,NA,NA,NA
33928,control,56,2,0.31281624999974156,0.7,1,NA,NA,NA,NA,NA,152,357,NA,NA,NA,NA
33928,control,57,2,0.5909381660021609,0.7,1,NA,NA,NA,NA,NA,153,357,NA,NA,NA,NA
33928,control,58,1,0.27221287499560276,0.5,0,NA,NA,NA,NA,NA,153,357,NA,NA,NA,NA
33928,control,59,2,0.660720667001442,0.7,1,NA,NA,NA,NA,NA,154,357,NA,NA,NA,NA
33928,control,60,2,0.3659986670027138,0.7,1,NA,NA,NA,NA,NA,155,357,NA,NA,NA,NA
33952,late_regret,1,1,1.377410167013295,0.7,0,NA,NA,0.7,0.5,0.2,155,357,1,2,3,best
33952,late_regret,2,1,0.769057540979702,0.7,1,NA,NA,0.7,0.5,0.2,156,357,1,2,3,best
33952,late_regret,3,1,0.5756665000226349,0.7,1,NA,NA,0.7,0.5,0.2,157,357,1,2,3,best
33952,late_regret,4,1,0.5463217080105096,0.7,1,NA,NA,0.7,0.5,0.2,158,357,1,2,3,best
33952,late_regret,5,1,0.3808759999810718,0.7,1,NA,NA,0.7,0.5,0.2,159,357,1,2,3,best
33952,late_regret,6,1,0.485826000047382,0.7,1,NA,NA,0.7,0.5,0.2,160,357,1,2,3,best
33952,late_regret,7,1,0.3530176660278812,0.7,0,NA,NA,0.7,0.5,0.2,160,357,1,2,3,best
33952,late_regret,8,1,0.29187904205173254,0.7,1,NA,NA,0.7,0.5,0.2,161,357,1,2,3,best
33952,late_regret,9,2,0.37148020800668746,0.5,0,NA,NA,0.7,0.5,0.2,161,357,1,2,3,medium
33952,late_regret,10,2,0.33446979196742177,0.5,0,NA,NA,0.7,0.5,0.2,161,357,1,2,3,medium
33952,late_regret,11,2,0.38092387502547354,0.5,1,NA,NA,0.7,0.5,0.2,162,357,1,2,3,medium
33952,late_regret,12,2,0.3354510419885628,0.5,1,NA,NA,0.7,0.5,0.2,163,357,1,2,3,medium
33952,late_regret,13,2,0.40245500003220513,0.5,1,NA,NA,0.7,0.5,0.2,164,357,1,2,3,medium
33952,late_regret,14,2,0.5223711659782566,0.5,0,NA,NA,0.7,0.5,0.2,164,357,1,2,3,medium
33952,late_regret,15,2,0.2789517499622889,0.5,0,NA,NA,0.7,0.5,0.2,164,357,1,2,3,medium
33952,late_regret,16,3,0.5617704159813002,0.2,1,NA,NA,0.7,0.5,0.2,165,357,1,2,3,worst
33952,late_regret,17,3,0.4957671249867417,0.2,0,NA,NA,0.7,0.5,0.2,165,357,1,2,3,worst
33952,late_regret,18,3,0.4220979579840787,0.2,1,NA,NA,0.7,0.5,0.2,166,357,1,2,3,worst
33952,late_regret,19,3,0.4675726660061627,0.2,0,NA,NA,0.7,0.5,0.2,166,357,1,2,3,worst
33952,late_regret,20,3,0.4981031659990549,0.2,0,NA,NA,0.7,0.5,0.2,166,357,1,2,3,worst
33952,late_regret,21,3,0.7886387500329874,0.2,0,NA,NA,0.7,0.5,0.2,166,357,1,2,3,worst
33952,late_regret,22,3,0.37299837497994304,0.2,0,NA,NA,0.7,0.5,0.2,166,357,1,2,3,worst
33952,late_regret,23,3,0.3116802499862388,0.2,0,NA,NA,0.7,0.5,0.2,166,357,1,2,3,worst
33952,late_regret,24,1,0.3122947500087321,0.7,1,NA,NA,0.7,0.5,0.2,167,357,1,2,3,best
33952,late_regret,25,1,0.3479036670178175,0.7,0,NA,NA,0.7,0.5,0.2,167,357,1,2,3,best
33952,late_regret,26,1,0.26699762500356883,0.7,1,NA,NA,0.7,0.5,0.2,168,357,1,2,3,best
33952,late_regret,27,1,0.29852816701168194,0.7,1,NA,NA,0.7,0.5,0.2,169,357,1,2,3,best
33952,late_regret,28,1,0.3160025409888476,0.7,1,NA,NA,0.7,0.5,0.2,170,357,1,2,3,best
33952,late_regret,29,1,0.2799690830288455,0.7,0,NA,NA,0.7,0.5,0.2,170,357,1,2,3,best
33952,late_regret,30,1,0.3822791669517755,0.7,0,NA,NA,0.7,0.5,0.2,170,357,1,2,3,best
33952,late_regret,31,1,0.3946543749771081,0.7,1,NA,NA,0.7,0.5,0.2,171,357,1,2,3,best
33952,late_regret,32,1,0.3328916669706814,0.7,1,NA,NA,0.7,0.5,0.2,172,357,1,2,3,best
33952,late_regret,33,1,0.26868658303283155,0.7,1,NA,NA,0.7,0.5,0.2,173,357,1,2,3,best
33952,late_regret,34,1,0.3870228750165552,0.7,1,NA,NA,0.7,0.5,0.2,174,357,1,2,3,best
33952,late_regret,35,1,0.41743937501451,0.7,0,1,3.9120784999686298,0.7,0.5,0.2,174,357,1,2,3,best
33952,late_regret,36,1,0.562679708993528,0.7,0,2,1.8197643750463612,0.7,0.5,0.2,174,357,1,2,3,best
33952,late_regret,37,1,0.4194786670268513,0.7,1,NA,NA,0.7,0.5,0.2,175,357,1,2,3,best
33952,late_regret,38,1,0.359280459000729,0.7,0,2,1.427965375012718,0.7,0.5,0.2,175,357,1,2,3,best
33952,late_regret,39,1,0.5529991250368766,0.7,1,NA,NA,0.7,0.5,0.2,176,357,1,2,3,best
33952,late_regret,40,1,0.43521991599118337,0.7,1,NA,NA,0.7,0.5,0.2,177,357,1,2,3,best
33952,late_regret,41,1,0.36227816698374227,0.7,0,2,1.3871735419961624,0.7,0.5,0.2,177,357,1,2,3,best
33952,late_regret,42,1,0.43407341704005376,0.7,0,2,1.8825391660211608,0.7,0.5,0.2,177,357,1,2,3,best
33952,late_regret,43,1,0.4922848329879343,0.7,1,NA,NA,0.7,0.5,0.2,178,357,1,2,3,best
33952,late_regret,44,1,0.4807366660097614,0.7,1,NA,NA,0.7,0.5,0.2,179,357,1,2,3,best
33952,late_regret,45,1,0.5769278340158053,0.7,1,NA,NA,0.7,0.5,0.2,180,357,1,2,3,best
33952,late_regret,46,1,0.479186833021231,0.7,1,NA,NA,0.7,0.5,0.2,181,357,1,2,3,best
33952,late_regret,47,1,0.5367013340000995,0.7,1,NA,NA,0.7,0.5,0.2,182,357,1,2,3,best
33952,late_regret,48,1,0.32996262499364093,0.7,1,NA,NA,0.7,0.5,0.2,183,357,1,2,3,best
33952,late_regret,49,1,0.4754471670021303,0.7,0,1,0.9038431659573688,0.7,0.5,0.2,183,357,1,2,3,best
33952,late_regret,50,1,0.39539866597624496,0.7,1,NA,NA,0.7,0.5,0.2,184,357,1,2,3,best
33952,late_regret,51,1,0.3863437910331413,0.7,0,1,1.603581707982812,0.7,0.5,0.2,184,357,1,2,3,best
33952,late_regret,52,1,0.4808110420126468,0.7,0,2,1.0931397499516606,0.7,0.5,0.2,184,357,1,2,3,best
33952,late_regret,53,1,0.4495185840060003,0.7,0,2,1.255743249959778,0.7,0.5,0.2,184,357,1,2,3,best
33952,late_regret,54,1,0.4127680420060642,0.7,1,NA,NA,0.7,0.5,0.2,185,357,1,2,3,best
33952,late_regret,55,1,0.3971677499939688,0.7,0,2,0.9228639590437524,0.7,0.5,0.2,185,357,1,2,3,best
33952,late_regret,56,1,0.4673255000379868,0.7,1,NA,NA,0.7,0.5,0.2,186,357,1,2,3,best
33952,late_regret,57,1,0.3849198329844512,0.7,0,2,1.4985108749824576,0.7,0.5,0.2,186,357,1,2,3,best
33952,late_regret,58,1,0.3226563750067726,0.7,0,2,1.3908479999518022,0.7,0.5,0.2,186,357,1,2,3,best
33952,late_regret,59,1,0.3603363340371288,0.7,1,NA,NA,0.7,0.5,0.2,187,357,1,2,3,best
33952,late_regret,60,1,0.5029617079999298,0.7,1,NA,NA,0.7,0.5,0.2,188,357,1,2,3,best
33955,late_regret,1,3,2.6318895000149496,0.2,0,NA,NA,0.7,0.5,0.2,188,357,1,2,3,worst
33955,late_regret,2,2,0.5028440830064937,0.5,1,NA,NA,0.7,0.5,0.2,189,357,1,2,3,medium
33955,late_regret,3,2,0.6563279169495218,0.5,0,NA,NA,0.7,0.5,0.2,189,357,1,2,3,medium
33955,late_regret,4,1,0.4134157079970464,0.7,1,NA,NA,0.7,0.5,0.2,190,357,1,2,3,best
33955,late_regret,5,3,0.3737489170162007,0.2,0,NA,NA,0.7,0.5,0.2,190,357,1,2,3,worst
33955,late_regret,6,2,0.4713229580083862,0.5,0,NA,NA,0.7,0.5,0.2,190,357,1,2,3,medium
33955,late_regret,7,1,0.34884104202501476,0.7,0,NA,NA,0.7,0.5,0.2,190,357,1,2,3,best
33955,late_regret,8,1,0.31776624999474734,0.7,1,NA,NA,0.7,0.5,0.2,191,357,1,2,3,best
33955,late_regret,9,1,0.3529260419891216,0.7,1,NA,NA,0.7,0.5,0.2,192,357,1,2,3,best
33955,late_regret,10,2,0.48711162502877414,0.5,1,NA,NA,0.7,0.5,0.2,193,357,1,2,3,medium
33955,late_regret,11,2,0.35157683299621567,0.5,1,NA,NA,0.7,0.5,0.2,194,357,1,2,3,medium
33955,late_regret,12,3,0.34545570897171274,0.2,0,NA,NA,0.7,0.5,0.2,194,357,1,2,3,worst
33955,late_regret,13,1,0.6885273749940097,0.7,1,NA,NA,0.7,0.5,0.2,195,357,1,2,3,best
33955,late_regret,14,1,0.38083270896459,0.7,0,NA,NA,0.7,0.5,0.2,195,357,1,2,3,best
33955,late_regret,15,2,0.4100643749698065,0.5,0,NA,NA,0.7,0.5,0.2,195,357,1,2,3,medium
33955,late_regret,16,2,0.04662108299089596,0.5,0,NA,NA,0.7,0.5,0.2,195,357,1,2,3,medium
33955,late_regret,17,2,0.3198577919974923,0.5,1,NA,NA,0.7,0.5,0.2,196,357,1,2,3,medium
33955,late_regret,18,1,0.41897887497907504,0.7,1,NA,NA,0.7,0.5,0.2,197,357,1,2,3,best
33955,late_regret,19,2,0.46282412501750514,0.5,0,NA,NA,0.7,0.5,0.2,197,357,1,2,3,medium
33955,late_regret,20,1,0.29231083299964666,0.7,0,NA,NA,0.7,0.5,0.2,197,357,1,2,3,best
33955,late_regret,21,1,0.40250145900063217,0.7,0,NA,NA,0.7,0.5,0.2,197,357,1,2,3,best
33955,late_regret,22,1,0.4733703339588829,0.7,1,NA,NA,0.7,0.5,0.2,198,357,1,2,3,best
33955,late_regret,23,1,0.4973381669842638,0.7,0,NA,NA,0.7,0.5,0.2,198,357,1,2,3,best
33955,late_regret,24,3,0.4173885839991271,0.2,0,NA,NA,0.7,0.5,0.2,198,357,1,2,3,worst
33955,late_regret,25,3,0.3114827920217067,0.2,0,NA,NA,0.7,0.5,0.2,198,357,1,2,3,worst
33955,late_regret,26,3,0.2903391669970006,0.2,0,NA,NA,0.7,0.5,0.2,198,357,1,2,3,worst
33955,late_regret,27,3,0.7308392080012709,0.2,0,NA,NA,0.7,0.5,0.2,198,357,1,2,3,worst
33955,late_regret,28,2,0.3040633749915287,0.5,0,NA,NA,0.7,0.5,0.2,198,357,1,2,3,medium
33955,late_regret,29,2,0.30893845797982067,0.5,1,NA,NA,0.7,0.5,0.2,199,357,1,2,3,medium
33955,late_regret,30,2,0.3696815840085037,0.5,1,NA,NA,0.7,0.5,0.2,200,357,1,2,3,medium
33955,late_regret,31,2,0.40838629100471735,0.5,1,NA,NA,0.7,0.5,0.2,201,357,1,2,3,medium
33955,late_regret,32,2,0.37962679198244587,0.5,0,3,4.76313737500459,0.7,0.5,0.2,201,357,1,2,3,medium
33955,late_regret,33,1,0.654116082994733,0.7,1,NA,NA,0.7,0.5,0.2,202,357,1,2,3,best
33955,late_regret,34,1,0.3335957090021111,0.7,1,NA,NA,0.7,0.5,0.2,203,357,1,2,3,best
33955,late_regret,35,1,0.4400589999859222,0.7,1,NA,NA,0.7,0.5,0.2,204,357,1,2,3,best
33955,late_regret,36,1,0.3707839160342701,0.7,1,NA,NA,0.7,0.5,0.2,205,357,1,2,3,best
33955,late_regret,37,1,0.3962949580163695,0.7,1,NA,NA,0.7,0.5,0.2,206,357,1,2,3,best
33955,late_regret,38,1,0.3836121250060387,0.7,1,NA,NA,0.7,0.5,0.2,207,357,1,2,3,best
33955,late_regret,39,1,0.5427823750069365,0.7,1,NA,NA,0.7,0.5,0.2,208,357,1,2,3,best
33955,late_regret,40,1,0.4540114999981597,0.7,1,NA,NA,0.7,0.5,0.2,209,357,1,2,3,best
33955,late_regret,41,1,0.3226277909707278,0.7,1,NA,NA,0.7,0.5,0.2,210,357,1,2,3,best
33955,late_regret,42,1,0.39262374996906146,0.7,1,NA,NA,0.7,0.5,0.2,211,357,1,2,3,best
33955,late_regret,43,1,0.3984772919793613,0.7,1,NA,NA,0.7,0.5,0.2,212,357,1,2,3,best
33955,late_regret,44,1,0.38760679197730497,0.7,1,NA,NA,0.7,0.5,0.2,213,357,1,2,3,best
33955,late_regret,45,1,0.3750044999760576,0.7,1,NA,NA,0.7,0.5,0.2,214,357,1,2,3,best
33955,late_regret,46,1,0.6005005830083974,0.7,1,NA,NA,0.7,0.5,0.2,215,357,1,2,3,best
33955,late_regret,47,1,0.5634476669947617,0.7,1,NA,NA,0.7,0.5,0.2,216,357,1,2,3,best
33955,late_regret,48,1,0.40692916698753834,0.7,0,1,2.5314245839836076,0.7,0.5,0.2,216,357,1,2,3,best
33955,late_regret,49,2,0.5694069169694558,0.5,0,2,2.993906208954286,0.7,0.5,0.2,216,357,1,2,3,medium
33955,late_regret,50,3,0.6558625420439057,0.2,0,3,2.015778999950271,0.7,0.5,0.2,216,357,1,2,3,worst
33955,late_regret,51,1,1.3306436670245605,0.7,0,1,0.8076280410168692,0.7,0.5,0.2,216,357,1,2,3,best
33955,late_regret,52,1,0.3631588330026716,0.7,0,2,0.7057595419464633,0.7,0.5,0.2,216,357,1,2,3,best
33955,late_regret,53,2,0.5863212499534711,0.5,1,NA,NA,0.7,0.5,0.2,217,357,1,2,3,medium
33955,late_regret,54,2,0.8523142909980379,0.5,1,NA,NA,0.7,0.5,0.2,218,357,1,2,3,medium
33955,late_regret,55,2,0.3174505410133861,0.5,0,1,2.043100208044052,0.7,0.5,0.2,218,357,1,2,3,medium
33955,late_regret,56,1,0.8321149999974295,0.7,0,1,2.0566598339937627,0.7,0.5,0.2,218,357,1,2,3,best
33955,late_regret,57,1,0.3878877909737639,0.7,1,NA,NA,0.7,0.5,0.2,219,357,1,2,3,best
33955,late_regret,58,1,0.443995583045762,0.7,1,NA,NA,0.7,0.5,0.2,220,357,1,2,3,best
33955,late_regret,59,1,0.8820901669678278,0.7,0,1,1.3235263749957085,0.7,0.5,0.2,220,357,1,2,3,best
33955,late_regret,60,2,0.4545253749820404,0.5,0,2,0.9602155000320636,0.7,0.5,0.2,220,357,1,2,3,medium
34003,late_regret,1,2,0.8761452499966254,0.5,0,NA,NA,0.2,0.5,0.7,220,357,3,2,1,medium
34003,late_regret,2,3,0.5460370830041938,0.7,1,NA,NA,0.2,0.5,0.7,221,357,3,2,1,best
34003,late_regret,3,1,0.3616917920007836,0.2,0,NA,NA,0.2,0.5,0.7,221,357,3,2,1,worst
34003,late_regret,4,3,0.3550659579996136,0.7,1,NA,NA,0.2,0.5,0.7,222,357,3,2,1,best
34003,late_regret,5,3,0.3986073750056675,0.7,0,NA,NA,0.2,0.5,0.7,222,357,3,2,1,best
34003,late_regret,6,2,0.4052775000018301,0.5,1,NA,NA,0.2,0.5,0.7,223,357,3,2,1,medium
34003,late_regret,7,1,0.39568279100058135,0.2,1,NA,NA,0.2,0.5,0.7,224,357,3,2,1,worst
34003,late_regret,8,3,0.3549693750028382,0.7,1,NA,NA,0.2,0.5,0.7,225,357,3,2,1,best
34003,late_regret,9,2,0.4344053750028252,0.5,0,NA,NA,0.2,0.5,0.7,225,357,3,2,1,medium
34003,late_regret,10,3,0.2906157079996774,0.7,0,NA,NA,0.2,0.5,0.7,225,357,3,2,1,best
34003,late_regret,11,1,0.36684533300285693,0.2,0,NA,NA,0.2,0.5,0.7,225,357,3,2,1,worst
34003,late_regret,12,2,0.4798369170021033,0.5,0,NA,NA,0.2,0.5,0.7,225,357,3,2,1,medium
34003,late_regret,13,2,0.35379987500346033,0.5,1,NA,NA,0.2,0.5,0.7,226,357,3,2,1,medium
34003,late_regret,14,3,0.4447247500065714,0.7,0,NA,NA,0.2,0.5,0.7,226,357,3,2,1,best
34003,late_regret,15,3,0.3204619590032962,0.7,1,NA,NA,0.2,0.5,0.7,227,357,3,2,1,best
34003,late_regret,16,1,0.36164895800175145,0.2,0,NA,NA,0.2,0.5,0.7,227,357,3,2,1,worst
34003,late_regret,17,1,0.460509208998701,0.2,0,NA,NA,0.2,0.5,0.7,227,357,3,2,1,worst
34003,late_regret,18,2,0.33765150000544963,0.5,1,NA,NA,0.2,0.5,0.7,228,357,3,2,1,medium
34003,late_regret,19,1,0.3153085409940104,0.2,1,NA,NA,0.2,0.5,0.7,229,357,3,2,1,worst
34003,late_regret,20,2,0.45547000000078697,0.5,0,NA,NA,0.2,0.5,0.7,229,357,3,2,1,medium
34003,late_regret,21,2,0.34882125000149244,0.5,1,NA,NA,0.2,0.5,0.7,230,357,3,2,1,medium
34003,late_regret,22,3,0.3502899579980294,0.7,1,NA,NA,0.2,0.5,0.7,231,357,3,2,1,best
34003,late_regret,23,1,0.3953732910013059,0.2,1,NA,NA,0.2,0.5,0.7,232,357,3,2,1,worst
34003,late_regret,24,2,0.3601671249998617,0.5,1,NA,NA,0.2,0.5,0.7,233,357,3,2,1,medium
34003,late_regret,25,3,0.32786154199857265,0.7,1,NA,NA,0.2,0.5,0.7,234,357,3,2,1,best
34003,late_regret,26,1,0.2905540409992682,0.2,0,NA,NA,0.2,0.5,0.7,234,357,3,2,1,worst
34003,late_regret,27,2,0.3341752920023282,0.5,1,NA,NA,0.2,0.5,0.7,235,357,3,2,1,medium
34003,late_regret,28,3,0.32131495799694676,0.7,1,NA,NA,0.2,0.5,0.7,236,357,3,2,1,best
34003,late_regret,29,1,0.2834548749960959,0.2,0,NA,NA,0.2,0.5,0.7,236,357,3,2,1,worst
34003,late_regret,30,1,0.6870995829958702,0.2,0,NA,NA,0.2,0.5,0.7,236,357,3,2,1,worst
34003,late_regret,31,2,0.4353537920032977,0.5,0,2,3.06101862500509,0.2,0.5,0.7,236,357,3,2,1,medium
34003,late_regret,32,2,0.6278626249986701,0.5,0,1,1.3862868750002235,0.2,0.5,0.7,236,357,3,2,1,medium
34003,late_regret,33,3,0.3823395840008743,0.7,1,NA,NA,0.2,0.5,0.7,237,357,3,2,1,best
34003,late_regret,34,1,0.4490168750053272,0.2,0,1,0.9273251670019818,0.2,0.5,0.7,237,357,3,2,1,worst
34003,late_regret,35,2,0.3783866250014398,0.5,0,1,0.941649291999056,0.2,0.5,0.7,237,357,3,2,1,medium
34003,late_regret,36,3,0.46437829099886585,0.7,1,NA,NA,0.2,0.5,0.7,238,357,3,2,1,best
34003,late_regret,37,3,0.7581073749970528,0.7,1,NA,NA,0.2,0.5,0.7,239,357,3,2,1,best
34003,late_regret,38,2,0.3294196670030942,0.5,1,NA,NA,0.2,0.5,0.7,240,357,3,2,1,medium
34003,late_regret,39,1,0.38602954099769704,0.2,0,1,0.9673894999941696,0.2,0.5,0.7,240,357,3,2,1,worst
34003,late_regret,40,3,0.5050932500016643,0.7,1,NA,NA,0.2,0.5,0.7,241,357,3,2,1,best
34003,late_regret,41,3,0.2833442080009263,0.7,1,NA,NA,0.2,0.5,0.7,242,357,3,2,1,best
34003,late_regret,42,3,0.3185271250040387,0.7,0,1,0.5408842499964521,0.2,0.5,0.7,242,357,3,2,1,best
34003,late_regret,43,1,0.41132845799438655,0.2,0,1,0.6802385000046343,0.2,0.5,0.7,242,357,3,2,1,worst
34003,late_regret,44,2,0.3978681250009686,0.5,1,NA,NA,0.2,0.5,0.7,243,357,3,2,1,medium
34003,late_regret,45,3,0.32846341600088635,0.7,0,1,0.6614596250001341,0.2,0.5,0.7,243,357,3,2,1,best
34003,late_regret,46,1,0.36246666700026253,0.2,0,1,0.7539197919977596,0.2,0.5,0.7,243,357,3,2,1,worst
34003,late_regret,47,2,0.4048917079999228,0.5,1,NA,NA,0.2,0.5,0.7,244,357,3,2,1,medium
34003,late_regret,48,3,0.3328146249987185,0.7,1,NA,NA,0.2,0.5,0.7,245,357,3,2,1,best
34003,late_regret,49,1,0.29462524999689776,0.2,1,NA,NA,0.2,0.5,0.7,246,357,3,2,1,worst
34003,late_regret,50,3,0.28551970799890114,0.7,1,NA,NA,0.2,0.5,0.7,247,357,3,2,1,best
34003,late_regret,51,2,0.3516274159992463,0.5,0,1,0.7523000419969321,0.2,0.5,0.7,247,357,3,2,1,medium
34003,late_regret,52,1,0.4495042080015992,0.2,0,1,0.4583387499951641,0.2,0.5,0.7,247,357,3,2,1,worst
34003,late_regret,53,2,0.3479602910010726,0.5,0,2,0.3949566670053173,0.2,0.5,0.7,247,357,3,2,1,medium
34003,late_regret,54,3,0.3646777500034659,0.7,0,1,0.35729587500100024,0.2,0.5,0.7,247,357,3,2,1,best
34003,late_regret,55,1,0.3013532090044464,0.2,0,1,0.4046578750057961,0.2,0.5,0.7,247,357,3,2,1,worst
34003,late_regret,56,1,0.2958792909994372,0.2,0,1,0.42942095900070854,0.2,0.5,0.7,247,357,3,2,1,worst
34003,late_regret,57,2,0.3280195420011296,0.5,1,NA,NA,0.2,0.5,0.7,248,357,3,2,1,medium
34003,late_regret,58,3,0.4686527920057415,0.7,1,NA,NA,0.2,0.5,0.7,249,357,3,2,1,best
34003,late_regret,59,1,0.39375324999855366,0.2,0,1,0.5707955830002902,0.2,0.5,0.7,249,357,3,2,1,worst
34003,late_regret,60,2,0.2978184590028832,0.5,0,1,0.5463253339985386,0.2,0.5,0.7,249,357,3,2,1,medium
34054,control,1,1,0.7837877919955645,0.7,0,NA,NA,NA,NA,NA,249,357,NA,NA,NA,NA
34054,control,2,2,0.7963952089776285,0.5,0,NA,NA,NA,NA,NA,249,357,NA,NA,NA,NA
34054,control,3,1,0.3653030830028001,0.7,1,NA,NA,NA,NA,NA,250,357,NA,NA,NA,NA
34054,control,4,3,0.5912494160002097,0.2,0,NA,NA,NA,NA,NA,250,357,NA,NA,NA,NA
34054,control,5,3,0.4070029580034315,0.2,0,NA,NA,NA,NA,NA,250,357,NA,NA,NA,NA
34054,control,6,1,0.2713614999956917,0.7,0,NA,NA,NA,NA,NA,250,357,NA,NA,NA,NA
34054,control,7,2,0.6788048750022426,0.5,0,NA,NA,NA,NA,NA,250,357,NA,NA,NA,NA
34054,control,8,2,0.5906049170007464,0.5,0,NA,NA,NA,NA,NA,250,357,NA,NA,NA,NA
34054,control,9,1,1.201039250008762,0.7,0,NA,NA,NA,NA,NA,250,357,NA,NA,NA,NA
34054,control,10,1,0.35636045900173485,0.7,0,NA,NA,NA,NA,NA,250,357,NA,NA,NA,NA
34054,control,11,2,0.3697680000041146,0.5,1,NA,NA,NA,NA,NA,251,357,NA,NA,NA,NA
34054,control,12,1,0.32994679201510735,0.7,1,NA,NA,NA,NA,NA,252,357,NA,NA,NA,NA
34054,control,13,2,0.3698960000183434,0.5,1,NA,NA,NA,NA,NA,253,357,NA,NA,NA,NA
34054,control,14,3,0.3490081669879146,0.2,1,NA,NA,NA,NA,NA,254,357,NA,NA,NA,NA
34054,control,15,3,0.5132224999833852,0.2,1,NA,NA,NA,NA,NA,255,357,NA,NA,NA,NA
34054,control,16,2,0.3845657080237288,0.5,1,NA,NA,NA,NA,NA,256,357,NA,NA,NA,NA
34054,control,17,1,0.6891478750039823,0.7,0,NA,NA,NA,NA,NA,256,357,NA,NA,NA,NA
34054,control,18,3,0.29620983300264925,0.2,0,NA,NA,NA,NA,NA,256,357,NA,NA,NA,NA
34054,control,19,1,0.27314154198393226,0.7,1,NA,NA,NA,NA,NA,257,357,NA,NA,NA,NA
34054,control,20,2,0.4746691249893047,0.5,0,NA,NA,NA,NA,NA,257,357,NA,NA,NA,NA
34054,control,21,1,0.6174245830043219,0.7,1,NA,NA,NA,NA,NA,258,357,NA,NA,NA,NA
34054,control,22,1,0.3687627920007799,0.7,1,NA,NA,NA,NA,NA,259,357,NA,NA,NA,NA
34054,control,23,1,0.4289908749924507,0.7,0,NA,NA,NA,NA,NA,259,357,NA,NA,NA,NA
34054,control,24,3,0.0973130839993246,0.2,0,NA,NA,NA,NA,NA,259,357,NA,NA,NA,NA
34054,control,25,2,0.4562072080152575,0.5,0,NA,NA,NA,NA,NA,259,357,NA,NA,NA,NA
34054,control,26,2,0.4772914999921341,0.5,1,NA,NA,NA,NA,NA,260,357,NA,NA,NA,NA
34054,control,27,1,0.29908716698992066,0.7,1,NA,NA,NA,NA,NA,261,357,NA,NA,NA,NA
34054,control,28,2,0.4284162919793744,0.5,1,NA,NA,NA,NA,NA,262,357,NA,NA,NA,NA
34054,control,29,1,0.7429126249917317,0.7,1,NA,NA,NA,NA,NA,263,357,NA,NA,NA,NA
34054,control,30,3,0.3899157499836292,0.2,0,NA,NA,NA,NA,NA,263,357,NA,NA,NA,NA
34054,control,31,2,0.5509596659976523,0.5,1,NA,NA,NA,NA,NA,264,357,NA,NA,NA,NA
34054,control,32,1,0.05450912498054094,0.7,0,NA,NA,NA,NA,NA,264,357,NA,NA,NA,NA
34054,control,33,3,0.1444189999892842,0.2,0,NA,NA,NA,NA,NA,264,357,NA,NA,NA,NA
34054,control,34,2,0.4707033330050763,0.5,0,NA,NA,NA,NA,NA,264,357,NA,NA,NA,NA
34054,control,35,1,0.4632188339892309,0.7,0,NA,NA,NA,NA,NA,264,357,NA,NA,NA,NA
34054,control,36,2,0.5055339579994325,0.5,1,NA,NA,NA,NA,NA,265,357,NA,NA,NA,NA
34054,control,37,1,0.26726466600666754,0.7,1,NA,NA,NA,NA,NA,266,357,NA,NA,NA,NA
34054,control,38,2,0.48294979199999943,0.5,1,NA,NA,NA,NA,NA,267,357,NA,NA,NA,NA
34054,control,39,1,0.5983435830275994,0.7,1,NA,NA,NA,NA,NA,268,357,NA,NA,NA,NA
34054,control,40,1,0.4853263749973849,0.7,1,NA,NA,NA,NA,NA,269,357,NA,NA,NA,NA
34054,control,41,2,0.5033490000059828,0.5,1,NA,NA,NA,NA,NA,270,357,NA,NA,NA,NA
34054,control,42,1,0.31192687500151806,0.7,1,NA,NA,NA,NA,NA,271,357,NA,NA,NA,NA
34054,control,43,2,0.6229670830070972,0.5,0,NA,NA,NA,NA,NA,271,357,NA,NA,NA,NA
34054,control,44,3,0.31908654200378805,0.2,0,NA,NA,NA,NA,NA,271,357,NA,NA,NA,NA
34054,control,45,1,0.4063487499952316,0.7,1,NA,NA,NA,NA,NA,272,357,NA,NA,NA,NA
34054,control,46,2,0.5306739169755019,0.5,1,NA,NA,NA,NA,NA,273,357,NA,NA,NA,NA
34054,control,47,1,0.4606817079766188,0.7,1,NA,NA,NA,NA,NA,274,357,NA,NA,NA,NA
34054,control,48,2,0.472202417004155,0.5,1,NA,NA,NA,NA,NA,275,357,NA,NA,NA,NA
34054,control,49,1,0.372505875013303,0.7,1,NA,NA,NA,NA,NA,276,357,NA,NA,NA,NA
34054,control,50,3,0.3343939160113223,0.2,0,NA,NA,NA,NA,NA,276,357,NA,NA,NA,NA
34054,control,51,2,0.6551149169972632,0.5,0,NA,NA,NA,NA,NA,276,357,NA,NA,NA,NA
34054,control,52,1,0.4373221249843482,0.7,1,NA,NA,NA,NA,NA,277,357,NA,NA,NA,NA
34054,control,53,2,0.6523163340170868,0.5,1,NA,NA,NA,NA,NA,278,357,NA,NA,NA,NA
34054,control,54,1,0.4082663750159554,0.7,1,NA,NA,NA,NA,NA,279,357,NA,NA,NA,NA
34054,control,55,2,0.6073228750028647,0.5,1,NA,NA,NA,NA,NA,280,357,NA,NA,NA,NA
34054,control,56,1,0.6873800409957767,0.7,1,NA,NA,NA,NA,NA,281,357,NA,NA,NA,NA
34054,control,57,3,0.39322374999755993,0.2,0,NA,NA,NA,NA,NA,281,357,NA,NA,NA,NA
34054,control,58,2,0.5485071660077665,0.5,0,NA,NA,NA,NA,NA,281,357,NA,NA,NA,NA
34054,control,59,1,0.3896532500220928,0.7,0,NA,NA,NA,NA,NA,281,357,NA,NA,NA,NA
34054,control,60,2,0.628070500009926,0.5,0,NA,NA,NA,NA,NA,281,357,NA,NA,NA,NA
34066,late_regret,1,2,3.988571415990009,0.2,0,NA,NA,0.5,0.2,0.7,281,357,3,1,2,worst
34066,late_regret,2,1,1.48645845799183,0.5,1,NA,NA,0.5,0.2,0.7,282,357,3,1,2,medium
34066,late_regret,3,1,0.8178380419994937,0.5,1,NA,NA,0.5,0.2,0.7,283,357,3,1,2,medium
34066,late_regret,4,1,0.6496282919979421,0.5,0,NA,NA,0.5,0.2,0.7,283,357,3,1,2,medium
34066,late_regret,5,3,0.951499333998072,0.7,1,NA,NA,0.5,0.2,0.7,284,357,3,1,2,best
34066,late_regret,6,3,0.5850936659990111,0.7,1,NA,NA,0.5,0.2,0.7,285,357,3,1,2,best
34066,late_regret,7,3,0.6793782500026282,0.7,0,NA,NA,0.5,0.2,0.7,285,357,3,1,2,best
34066,late_regret,8,2,0.9870221669989404,0.2,0,NA,NA,0.5,0.2,0.7,285,357,3,1,2,worst
34066,late_regret,9,1,0.46716783300507814,0.5,0,NA,NA,0.5,0.2,0.7,285,357,3,1,2,medium
34066,late_regret,10,2,1.1041545000043698,0.2,0,NA,NA,0.5,0.2,0.7,285,357,3,1,2,worst
34066,late_regret,11,1,0.5154287089972058,0.5,1,NA,NA,0.5,0.2,0.7,286,357,3,1,2,medium
34066,late_regret,12,1,0.7128359589987667,0.5,1,NA,NA,0.5,0.2,0.7,287,357,3,1,2,medium
34066,late_regret,13,3,0.5318164580094162,0.7,1,NA,NA,0.5,0.2,0.7,288,357,3,1,2,best
34066,late_regret,14,3,0.5269083340099314,0.7,0,NA,NA,0.5,0.2,0.7,288,357,3,1,2,best
34066,late_regret,15,1,1.2298900419991696,0.5,0,NA,NA,0.5,0.2,0.7,288,357,3,1,2,medium
34066,late_regret,16,3,0.3452830000023823,0.7,1,NA,NA,0.5,0.2,0.7,289,357,3,1,2,best
34066,late_regret,17,3,0.7139252909983043,0.7,1,NA,NA,0.5,0.2,0.7,290,357,3,1,2,best
34066,late_regret,18,1,0.5533178329933435,0.5,0,NA,NA,0.5,0.2,0.7,290,357,3,1,2,medium
34066,late_regret,19,2,0.7368847499892581,0.2,0,NA,NA,0.5,0.2,0.7,290,357,3,1,2,worst
34066,late_regret,20,3,0.4018764159991406,0.7,0,NA,NA,0.5,0.2,0.7,290,357,3,1,2,best
34066,late_regret,21,1,0.3955800419935258,0.5,1,NA,NA,0.5,0.2,0.7,291,357,3,1,2,medium
34066,late_regret,22,1,0.5178440410090843,0.5,1,NA,NA,0.5,0.2,0.7,292,357,3,1,2,medium
34066,late_regret,23,1,0.4860251249920111,0.5,0,NA,NA,0.5,0.2,0.7,292,357,3,1,2,medium
34066,late_regret,24,3,0.5524461250024615,0.7,1,NA,NA,0.5,0.2,0.7,293,357,3,1,2,best
34066,late_regret,25,3,0.5618940840067808,0.7,1,NA,NA,0.5,0.2,0.7,294,357,3,1,2,best
34066,late_regret,26,3,0.5028015409916406,0.7,1,NA,NA,0.5,0.2,0.7,295,357,3,1,2,best
34066,late_regret,27,3,0.6083530000032624,0.7,0,NA,NA,0.5,0.2,0.7,295,357,3,1,2,best
34066,late_regret,28,1,0.44774175000202376,0.5,0,NA,NA,0.5,0.2,0.7,295,357,3,1,2,medium
34066,late_regret,29,1,0.4231393750087591,0.5,0,NA,NA,0.5,0.2,0.7,295,357,3,1,2,medium
34066,late_regret,30,3,0.5869834169861861,0.7,1,NA,NA,0.5,0.2,0.7,296,357,3,1,2,best
34066,late_regret,31,3,0.33890558300481644,0.7,0,1,2.9031156249984633,0.5,0.2,0.7,296,357,3,1,2,best
34066,late_regret,32,1,0.81601020898961,0.5,0,1,2.0941321249993052,0.5,0.2,0.7,296,357,3,1,2,medium
34066,late_regret,33,2,0.7528721660055453,0.2,0,2,1.214527749994886,0.5,0.2,0.7,296,357,3,1,2,worst
34066,late_regret,34,3,0.5631338340026559,0.7,1,NA,NA,0.5,0.2,0.7,297,357,3,1,2,best
34066,late_regret,35,3,0.560916417001863,0.7,0,1,2.60945425000682,0.5,0.2,0.7,297,357,3,1,2,best
34066,late_regret,36,1,0.00947545899543911,0.5,1,NA,NA,0.5,0.2,0.7,298,357,3,1,2,medium
34066,late_regret,37,1,0.46672541699081194,0.5,1,NA,NA,0.5,0.2,0.7,299,357,3,1,2,medium
34066,late_regret,38,1,0.48872791598842014,0.5,0,1,1.6741218329989351,0.5,0.2,0.7,299,357,3,1,2,medium
34066,late_regret,39,3,0.9084976669983008,0.7,1,NA,NA,0.5,0.2,0.7,300,357,3,1,2,best
34066,late_regret,40,3,0.5628636250039563,0.7,1,NA,NA,0.5,0.2,0.7,301,357,3,1,2,best
34066,late_regret,41,1,2.0969016249873675,0.5,0,2,1.552885334007442,0.5,0.2,0.7,301,357,3,1,2,medium
34066,late_regret,42,3,0.5581755829916801,0.7,0,1,0.8034352920076344,0.5,0.2,0.7,301,357,3,1,2,best
34066,late_regret,43,3,0.3294297499960521,0.7,1,NA,NA,0.5,0.2,0.7,302,357,3,1,2,best
34066,late_regret,44,3,0.4192145420092857,0.7,1,NA,NA,0.5,0.2,0.7,303,357,3,1,2,best
34066,late_regret,45,3,0.6318775000108872,0.7,1,NA,NA,0.5,0.2,0.7,304,357,3,1,2,best
34066,late_regret,46,3,0.42400645899761,0.7,1,NA,NA,0.5,0.2,0.7,305,357,3,1,2,best
34066,late_regret,47,3,0.4762433329888154,0.7,1,NA,NA,0.5,0.2,0.7,306,357,3,1,2,best
34066,late_regret,48,3,0.4495387920032954,0.7,1,NA,NA,0.5,0.2,0.7,307,357,3,1,2,best
34066,late_regret,49,3,0.528868749999674,0.7,0,1,0.4719322499877307,0.5,0.2,0.7,307,357,3,1,2,best
34066,late_regret,50,1,0.6472951670002658,0.5,0,2,2.562016333991778,0.5,0.2,0.7,307,357,3,1,2,medium
34066,late_regret,51,3,0.3554307919985149,0.7,1,NA,NA,0.5,0.2,0.7,308,357,3,1,2,best
34066,late_regret,52,3,0.5078941660030978,0.7,1,NA,NA,0.5,0.2,0.7,309,357,3,1,2,best
34066,late_regret,53,3,0.39598383399425074,0.7,1,NA,NA,0.5,0.2,0.7,310,357,3,1,2,best
34066,late_regret,54,3,0.9273411670001224,0.7,1,NA,NA,0.5,0.2,0.7,311,357,3,1,2,best
34066,late_regret,55,3,0.5487923750042683,0.7,1,NA,NA,0.5,0.2,0.7,312,357,3,1,2,best
34066,late_regret,56,3,0.4836462079983903,0.7,1,NA,NA,0.5,0.2,0.7,313,357,3,1,2,best
34066,late_regret,57,3,0.5441929579974385,0.7,0,1,0.7842001670069294,0.5,0.2,0.7,313,357,3,1,2,best
34066,late_regret,58,3,0.380750041003921,0.7,1,NA,NA,0.5,0.2,0.7,314,357,3,1,2,best
34066,late_regret,59,3,0.38658929101075046,0.7,1,NA,NA,0.5,0.2,0.7,315,357,3,1,2,best
34066,late_regret,60,3,0.4123812500038184,0.7,1,NA,NA,0.5,0.2,0.7,316,357,3,1,2,best
34108,early_regret,1,1,1.7166950420069045,0.5,0,3,2.0442138749931473,0.5,0.7,0.2,316,357,2,1,3,medium
34108,early_regret,2,2,1.5675612080085557,0.7,1,NA,NA,0.5,0.7,0.2,317,357,2,1,3,best
34108,early_regret,3,3,1.1529102080094162,0.2,0,3,1.9631077079975512,0.5,0.7,0.2,317,357,2,1,3,worst
34108,early_regret,4,1,1.0819823750061914,0.5,1,NA,NA,0.5,0.7,0.2,318,357,2,1,3,medium
34108,early_regret,5,1,1.060547750006663,0.5,0,3,1.2482511659909503,0.5,0.7,0.2,318,357,2,1,3,medium
34108,early_regret,6,2,0.6005316250084434,0.7,1,NA,NA,0.5,0.7,0.2,319,357,2,1,3,best
34108,early_regret,7,3,0.7676809169934131,0.2,0,3,1.3433549579931423,0.5,0.7,0.2,319,357,2,1,3,worst
34108,early_regret,8,2,0.9860715420218183,0.7,1,NA,NA,0.5,0.7,0.2,320,357,2,1,3,best
34108,early_regret,9,1,0.8001901250099763,0.5,1,NA,NA,0.5,0.7,0.2,321,357,2,1,3,medium
34108,early_regret,10,2,0.4859247089771088,0.7,1,NA,NA,0.5,0.7,0.2,322,357,2,1,3,best
34108,early_regret,11,3,0.5025354999816045,0.2,0,2,1.0661870000185445,0.5,0.7,0.2,322,357,2,1,3,worst
34108,early_regret,12,2,0.5536647090048064,0.7,1,NA,NA,0.5,0.7,0.2,323,357,2,1,3,best
34108,early_regret,13,1,0.548415750003187,0.5,1,NA,NA,0.5,0.7,0.2,324,357,2,1,3,medium
34108,early_regret,14,2,0.5091678340104409,0.7,1,NA,NA,0.5,0.7,0.2,325,357,2,1,3,best
34108,early_regret,15,1,0.4825636660098098,0.5,1,NA,NA,0.5,0.7,0.2,326,357,2,1,3,medium
34108,early_regret,16,2,0.4507552080031018,0.7,1,NA,NA,0.5,0.7,0.2,327,357,2,1,3,best
34108,early_regret,17,1,0.6683614999928977,0.5,1,NA,NA,0.5,0.7,0.2,328,357,2,1,3,medium
34108,early_regret,18,2,0.3681193749944214,0.7,1,NA,NA,0.5,0.7,0.2,329,357,2,1,3,best
34108,early_regret,19,1,0.31779154200921766,0.5,0,2,0.6657753750041593,0.5,0.7,0.2,329,357,2,1,3,medium
34108,early_regret,20,2,0.42414045901387,0.7,1,NA,NA,0.5,0.7,0.2,330,357,2,1,3,best
34108,early_regret,21,3,0.33673325000563636,0.2,0,2,1.7691853749856818,0.5,0.7,0.2,330,357,2,1,3,worst
34108,early_regret,22,2,0.4864057919767219,0.7,0,2,0.9611250410089268,0.5,0.7,0.2,330,357,2,1,3,best
34108,early_regret,23,2,0.3336248749983497,0.7,1,NA,NA,0.5,0.7,0.2,331,357,2,1,3,best
34108,early_regret,24,2,0.5183377500216011,0.7,1,NA,NA,0.5,0.7,0.2,332,357,2,1,3,best
34108,early_regret,25,2,0.3206521249958314,0.7,1,NA,NA,0.5,0.7,0.2,333,357,2,1,3,best
34108,early_regret,26,2,0.34489120898069814,0.7,1,NA,NA,0.5,0.7,0.2,334,357,2,1,3,best
34108,early_regret,27,2,0.6212293340067845,0.7,0,2,1.517931167007191,0.5,0.7,0.2,334,357,2,1,3,best
34108,early_regret,28,2,0.45500162499956787,0.7,1,NA,NA,0.5,0.7,0.2,335,357,2,1,3,best
34108,early_regret,29,1,0.31315433300915174,0.5,1,NA,NA,0.5,0.7,0.2,336,357,2,1,3,medium
34108,early_regret,30,2,0.6953186249884311,0.7,0,2,1.1635182500176595,0.5,0.7,0.2,336,357,2,1,3,best
34108,early_regret,31,3,0.32229145799647085,0.2,0,NA,NA,0.5,0.7,0.2,336,357,2,1,3,worst
34108,early_regret,32,2,0.5606714999885298,0.7,1,NA,NA,0.5,0.7,0.2,337,357,2,1,3,best
34108,early_regret,33,1,0.4938150410016533,0.5,0,NA,NA,0.5,0.7,0.2,337,357,2,1,3,medium
34108,early_regret,34,2,0.5679931250051595,0.7,1,NA,NA,0.5,0.7,0.2,338,357,2,1,3,best
34108,early_regret,35,2,0.3222001660033129,0.7,1,NA,NA,0.5,0.7,0.2,339,357,2,1,3,best
34108,early_regret,36,2,0.33439675002591684,0.7,1,NA,NA,0.5,0.7,0.2,340,357,2,1,3,best
34108,early_regret,37,2,0.3854390410124324,0.7,1,NA,NA,0.5,0.7,0.2,341,357,2,1,3,best
34108,early_regret,38,2,0.4603077080100775,0.7,1,NA,NA,0.5,0.7,0.2,342,357,2,1,3,best
34108,early_regret,39,2,0.3621846250025555,0.7,1,NA,NA,0.5,0.7,0.2,343,357,2,1,3,best
34108,early_regret,40,2,0.3356057080090977,0.7,0,NA,NA,0.5,0.7,0.2,343,357,2,1,3,best
34108,early_regret,41,3,0.3234075830259826,0.2,1,NA,NA,0.5,0.7,0.2,344,357,2,1,3,worst
34108,early_regret,42,2,0.49422270798822865,0.7,1,NA,NA,0.5,0.7,0.2,345,357,2,1,3,best
34108,early_regret,43,3,0.30518133300938644,0.2,0,NA,NA,0.5,0.7,0.2,345,357,2,1,3,worst
34108,early_regret,44,2,0.37222758401185274,0.7,1,NA,NA,0.5,0.7,0.2,346,357,2,1,3,best
34108,early_regret,45,2,0.3662065420066938,0.7,1,NA,NA,0.5,0.7,0.2,347,357,2,1,3,best
34108,early_regret,46,2,0.5444207079999615,0.7,1,NA,NA,0.5,0.7,0.2,348,357,2,1,3,best
34108,early_regret,47,2,0.5862509160069749,0.7,1,NA,NA,0.5,0.7,0.2,349,357,2,1,3,best
34108,early_regret,48,2,0.46472962500411086,0.7,0,NA,NA,0.5,0.7,0.2,349,357,2,1,3,best
34108,early_regret,49,1,0.4851016669999808,0.5,0,NA,NA,0.5,0.7,0.2,349,357,2,1,3,medium
34108,early_regret,50,3,0.3137399999832269,0.2,0,NA,NA,0.5,0.7,0.2,349,357,2,1,3,worst
34108,early_regret,51,2,0.3673650830169208,0.7,1,NA,NA,0.5,0.7,0.2,350,357,2,1,3,best
34108,early_regret,52,2,0.5425991670053918,0.7,1,NA,NA,0.5,0.7,0.2,351,357,2,1,3,best
34108,early_regret,53,2,0.5580054580059368,0.7,1,NA,NA,0.5,0.7,0.2,352,357,2,1,3,best
34108,early_regret,54,2,0.5288463750039227,0.7,1,NA,NA,0.5,0.7,0.2,353,357,2,1,3,best
34108,early_regret,55,2,0.3726218749943655,0.7,1,NA,NA,0.5,0.7,0.2,354,357,2,1,3,best
34108,early_regret,56,2,0.517900707985973,0.7,1,NA,NA,0.5,0.7,0.2,355,357,2,1,3,best
34108,early_regret,57,2,0.48157554198405705,0.7,1,NA,NA,0.5,0.7,0.2,356,357,2,1,3,best
34108,early_regret,58,1,0.954972417006502,0.5,1,NA,NA,0.5,0.7,0.2,357,357,2,1,3,medium
34108,early_regret,59,3,0.7732768749992829,0.2,0,NA,NA,0.5,0.7,0.2,357,357,2,1,3,worst
34108,early_regret,60,2,0.32845699999597855,0.7,0,NA,NA,0.5,0.7,0.2,357,357,2,1,3,best
