pid,condition,trial_index,type_lab,choice,choice_rt,choice_prob,points,regret,regret_rt,tree_1,tree_2,tree_3,totalpoints,final_points,tree_best,tree_medium,tree_worst,choice_goodbad,event_type,label,msg_time,i.start,i.end,sac_gstx,sac_gsty,sac_genx,sac_geny,sac_duration,fix_gstx,fix_gsty,fix_genx,fix_geny,fix_duration
64132,regret,1,choice,3,1.8917485830024816,0.2,1,NA,NA,0.5,0.7,0.2,1,372,2,1,3,worst,saccade,CHOICE_1,999,1254,1299,873.0999755859375,634.29998779296875,498.8999938964844,627.70001220703125,45,NA,NA,NA,NA,NA
64132,regret,1,choice,3,1.8917485830024816,0.2,1,NA,NA,0.5,0.7,0.2,1,372,2,1,3,worst,saccade,CHOICE_1,999,1553,1681,503.8999938964844,664.70001220703125,876.0999755859375,616.0999755859375,128,NA,NA,NA,NA,NA
64132,regret,1,choice,3,1.8917485830024816,0.2,1,NA,NA,0.5,0.7,0.2,1,372,2,1,3,worst,saccade,CHOICE_1,999,1747,1791,873.5,605.79998779296875,1257.0999755859375,608.9000244140625,44,NA,NA,NA,NA,NA
64132,regret,1,choice,3,1.8917485830024816,0.2,1,NA,NA,0.5,0.7,0.2,1,372,2,1,3,worst,saccade,CHOICE_1,999,2040,2054,1240.300048828125,601.5999755859375,1286.699951171875,595.79998779296875,14,NA,NA,NA,NA,NA
64132,regret,1,choice,3,1.8917485830024816,0.2,1,NA,NA,0.5,0.7,0.2,1,372,2,1,3,worst,saccade,CHOICE_1,999,2309,2355,1281.800048828125,604.20001220703125,861.70001220703125,614.20001220703125,46,NA,NA,NA,NA,NA
64132,regret,1,choice,3,1.8917485830024816,0.2,1,NA,NA,0.5,0.7,0.2,1,372,2,1,3,worst,saccade,CHOICE_1,999,2693,2741,861.29998779296875,609.70001220703125,1313.5999755859375,587.20001220703125,48,NA,NA,NA,NA,NA
64132,regret,1,feedback,3,1.8917485830024816,0.2,1,NA,NA,0.5,0.7,0.2,1,372,2,1,3,worst,saccade,FEEDBACK_1,2925,3221,3246,1289.0999755859375,585.9000244140625,1266.4000244140625,484.2999877929687,25,NA,NA,NA,NA,NA
64132,regret,1,feedback,3,1.8917485830024816,0.2,1,NA,NA,0.5,0.7,0.2,1,372,2,1,3,worst,saccade,FEEDBACK_1,2925,3460,3593,1248.699951171875,451,1248.800048828125,457.1000061035156,133,NA,NA,NA,NA,NA
64132,regret,1,feedback,3,1.8917485830024816,0.2,1,NA,NA,0.5,0.7,0.2,1,372,2,1,3,worst,saccade,FEEDBACK_1,2925,3725,3935,1287,571.5,1284.0999755859375,577.4000244140625,210,NA,NA,NA,NA,NA
64132,regret,1,feedback,3,1.8917485830024816,0.2,1,NA,NA,0.5,0.7,0.2,1,372,2,1,3,worst,saccade,FEEDBACK_1,2925,4086,4289,1285.0999755859375,679.9000244140625,1286.5,688.29998779296875,203,NA,NA,NA,NA,NA
64132,regret,1,feedback,3,1.8917485830024816,0.2,1,NA,NA,0.5,0.7,0.2,1,372,2,1,3,worst,saccade,FEEDBACK_1,2925,4528,4562,1209,644.5,1248.0999755859375,453.7999877929687,34,NA,NA,NA,NA,NA
64132,regret,1,regret,3,1.8917485830024816,0.2,1,NA,NA,0.5,0.7,0.2,1,372,2,1,3,worst,saccade,REGRET_1,4907,5124,5125,1060.9000244140625,527.5,1061.0999755859375,527.9000244140625,1,NA,NA,NA,NA,NA
64132,regret,1,regret,3,1.8917485830024816,0.2,1,NA,NA,0.5,0.7,0.2,1,372,2,1,3,worst,saccade,REGRET_1,4907,5389,5435,1067.300048828125,521.4000244140625,839.20001220703125,766.70001220703125,46,NA,NA,NA,NA,NA
64132,regret,1,regret,3,1.8917485830024816,0.2,1,NA,NA,0.5,0.7,0.2,1,372,2,1,3,worst,saccade,REGRET_1,4907,5699,5727,853.0999755859375,765.79998779296875,988.5,664.29998779296875,28,NA,NA,NA,NA,NA
64132,regret,1,fixation,3,1.8917485830024816,0.2,1,NA,NA,0.5,0.7,0.2,1,372,2,1,3,worst,saccade,FIX_1,5900,6183,6202,823.20001220703125,716.0999755859375,861.5999755859375,661.5999755859375,19,NA,NA,NA,NA,NA
64132,regret,1,choice,3,1.8917485830024816,0.2,1,NA,NA,0.5,0.7,0.2,1,372,2,1,3,worst,fixation,CHOICE_1,999,1300,1552,NA,NA,NA,NA,NA,497.7999877929687,628.20001220703125,504.2000122070313,662.5999755859375,252
64132,regret,1,choice,3,1.8917485830024816,0.2,1,NA,NA,0.5,0.7,0.2,1,372,2,1,3,worst,fixation,CHOICE_1,999,1682,1746,NA,NA,NA,NA,NA,876.29998779296875,615.79998779296875,873.5999755859375,605.70001220703125,64
64132,regret,1,choice,3,1.8917485830024816,0.2,1,NA,NA,0.5,0.7,0.2,1,372,2,1,3,worst,fixation,CHOICE_1,999,1792,2039,NA,NA,NA,NA,NA,1257.5,609,1239.0999755859375,601.4000244140625,247
64132,regret,1,choice,3,1.8917485830024816,0.2,1,NA,NA,0.5,0.7,0.2,1,372,2,1,3,worst,fixation,CHOICE_1,999,2055,2308,NA,NA,NA,NA,NA,1289.199951171875,595.70001220703125,1282.199951171875,604,253
64132,regret,1,choice,3,1.8917485830024816,0.2,1,NA,NA,0.5,0.7,0.2,1,372,2,1,3,worst,fixation,CHOICE_1,999,2356,2692,NA,NA,NA,NA,NA,860.4000244140625,615.20001220703125,861.29998779296875,609.70001220703125,336
64132,regret,1,feedback,3,1.8917485830024816,0.2,1,NA,NA,0.5,0.7,0.2,1,372,2,1,3,worst,fixation,FEEDBACK_1,2925,3247,3459,NA,NA,NA,NA,NA,1266.5999755859375,481.2000122070313,1248.5,450,212
64132,regret,1,feedback,3,1.8917485830024816,0.2,1,NA,NA,0.5,0.7,0.2,1,372,2,1,3,worst,fixation,FEEDBACK_1,2925,3594,3724,NA,NA,NA,NA,NA,1284.9000244140625,566,1287.4000244140625,571.5999755859375,130
64132,regret,1,feedback,3,1.8917485830024816,0.2,1,NA,NA,0.5,0.7,0.2,1,372,2,1,3,worst,fixation,FEEDBACK_1,2925,3936,4085,NA,NA,NA,NA,NA,1275.5,675.5,1285.4000244140625,679.4000244140625,149
64132,regret,1,feedback,3,1.8917485830024816,0.2,1,NA,NA,0.5,0.7,0.2,1,372,2,1,3,worst,fixation,FEEDBACK_1,2925,4290,4527,NA,NA,NA,NA,NA,1204.0999755859375,641.0999755859375,1209.5,644.9000244140625,237
64132,regret,1,regret,3,1.8917485830024816,0.2,1,NA,NA,0.5,0.7,0.2,1,372,2,1,3,worst,fixation,REGRET_1,4907,5126,5388,NA,NA,NA,NA,NA,1061.300048828125,528.29998779296875,1067.4000244140625,521.20001220703125,262
64132,regret,1,regret,3,1.8917485830024816,0.2,1,NA,NA,0.5,0.7,0.2,1,372,2,1,3,worst,fixation,REGRET_1,4907,5436,5698,NA,NA,NA,NA,NA,838.20001220703125,767.20001220703125,852.79998779296875,765.29998779296875,262
64132,regret,1,regret,3,1.8917485830024816,0.2,1,NA,NA,0.5,0.7,0.2,1,372,2,1,3,worst,fixation,REGRET_1,4907,5728,5858,NA,NA,NA,NA,NA,992,662.0999755859375,1000.4000244140624,663.5999755859375,130
64132,regret,1,fixation,3,1.8917485830024816,0.2,1,NA,NA,0.5,0.7,0.2,1,372,2,1,3,worst,fixation,FIX_1,5900,6021,6182,NA,NA,NA,NA,NA,831.5,704.5,823.5999755859375,717.20001220703125,161
64132,regret,1,fixation,3,1.8917485830024816,0.2,1,NA,NA,0.5,0.7,0.2,1,372,2,1,3,worst,fixation,FIX_1,5900,6203,6823,NA,NA,NA,NA,NA,862.0999755859375,659.20001220703125,872.4000244140625,655.4000244140625,620
64132,regret,2,choice,1,1.477564834000077,0.5,1,NA,NA,0.5,0.7,0.2,2,372,2,1,3,medium,saccade,CHOICE_2,6900,7282,7325,854.5,631.4000244140625,1230,602.9000244140625,43,NA,NA,NA,NA,NA
64132,regret,2,choice,1,1.477564834000077,0.5,1,NA,NA,0.5,0.7,0.2,2,372,2,1,3,medium,saccade,CHOICE_2,6900,7498,7541,1218.5,592.79998779296875,853.5,610.29998779296875,43,NA,NA,NA,NA,NA
64132,regret,2,choice,1,1.477564834000077,0.5,1,NA,NA,0.5,0.7,0.2,2,372,2,1,3,medium,saccade,CHOICE_2,6900,7691,7736,852.79998779296875,610.70001220703125,463.3999938964844,599.5,45,NA,NA,NA,NA,NA
64132,regret,2,choice,1,1.477564834000077,0.5,1,NA,NA,0.5,0.7,0.2,2,372,2,1,3,medium,saccade,CHOICE_2,6900,8176,8218,468.7000122070313,607.20001220703125,787.20001220703125,582.20001220703125,42,NA,NA,NA,NA,NA
64132,regret,2,feedback,1,1.477564834000077,0.5,1,NA,NA,0.5,0.7,0.2,2,372,2,1,3,medium,saccade,FEEDBACK_2,8408,8568,8615,781.5,580.9000244140625,458,436.3999938964844,47,NA,NA,NA,NA,NA
64132,regret,2,feedback,1,1.477564834000077,0.5,1,NA,NA,0.5,0.7,0.2,2,372,2,1,3,medium,saccade,FEEDBACK_2,8408,8866,8888,462.1000061035156,451,480.3999938964844,551.5,22,NA,NA,NA,NA,NA
64132,regret,2,feedback,1,1.477564834000077,0.5,1,NA,NA,0.5,0.7,0.2,2,372,2,1,3,medium,saccade,FEEDBACK_2,8408,9160,9206,475.3999938964844,576,851.5999755859375,596,46,NA,NA,NA,NA,NA
64132,regret,2,feedback,1,1.477564834000077,0.5,1,NA,NA,0.5,0.7,0.2,2,372,2,1,3,medium,saccade,FEEDBACK_2,8408,9579,9704,846.29998779296875,621.0999755859375,614.20001220703125,528.20001220703125,125,NA,NA,NA,NA,NA
64132,regret,2,feedback,1,1.477564834000077,0.5,1,NA,NA,0.5,0.7,0.2,2,372,2,1,3,medium,saccade,FEEDBACK_2,8408,9982,10025,608.4000244140625,536.4000244140625,909.79998779296875,621.5999755859375,43,NA,NA,NA,NA,NA
64132,regret,2,feedback,1,1.477564834000077,0.5,1,NA,NA,0.5,0.7,0.2,2,372,2,1,3,medium,saccade,FEEDBACK_2,8408,10217,10259,900.0999755859375,626.9000244140625,591.20001220703125,582.70001220703125,42,NA,NA,NA,NA,NA
64132,regret,2,regret,1,1.477564834000077,0.5,1,NA,NA,0.5,0.7,0.2,2,372,2,1,3,medium,saccade,REGRET_2,10401,10465,10652,587.5999755859375,606.70001220703125,712.0999755859375,590.0999755859375,187,NA,NA,NA,NA,NA
64132,regret,2,regret,1,1.477564834000077,0.5,1,NA,NA,0.5,0.7,0.2,2,372,2,1,3,medium,saccade,REGRET_2,10401,10779,10810,704.20001220703125,599.20001220703125,854.5,617.29998779296875,31,NA,NA,NA,NA,NA
64132,regret,2,regret,1,1.477564834000077,0.5,1,NA,NA,0.5,0.7,0.2,2,372,2,1,3,medium,saccade,REGRET_2,10401,11373,11390,894.70001220703125,638.20001220703125,880.4000244140625,608.79998779296875,17,NA,NA,NA,NA,NA
64132,regret,2,choice,1,1.477564834000077,0.5,1,NA,NA,0.5,0.7,0.2,2,372,2,1,3,medium,fixation,CHOICE_2,6900,6992,7281,NA,NA,NA,NA,NA,849,638.20001220703125,854.79998779296875,631.5,289
64132,regret,2,choice,1,1.477564834000077,0.5,1,NA,NA,0.5,0.7,0.2,2,372,2,1,3,medium,fixation,CHOICE_2,6900,7326,7497,NA,NA,NA,NA,NA,1230.9000244140625,602.70001220703125,1218.5,593,171
64132,regret,2,choice,1,1.477564834000077,0.5,1,NA,NA,0.5,0.7,0.2,2,372,2,1,3,medium,fixation,CHOICE_2,6900,7542,7690,NA,NA,NA,NA,NA,851.79998779296875,610.9000244140625,853.70001220703125,610.70001220703125,148
64132,regret,2,choice,1,1.477564834000077,0.5,1,NA,NA,0.5,0.7,0.2,2,372,2,1,3,medium,fixation,CHOICE_2,6900,7737,8175,NA,NA,NA,NA,NA,463.2000122070313,599.79998779296875,469.1000061035156,607.20001220703125,438
64132,regret,2,feedback,1,1.477564834000077,0.5,1,NA,NA,0.5,0.7,0.2,2,372,2,1,3,medium,fixation,FEEDBACK_2,8408,8616,8865,NA,NA,NA,NA,NA,457.6000061035156,436,462.2000122070313,450.7000122070313,249
64132,regret,2,feedback,1,1.477564834000077,0.5,1,NA,NA,0.5,0.7,0.2,2,372,2,1,3,medium,fixation,FEEDBACK_2,8408,8889,9159,NA,NA,NA,NA,NA,480,554,476.1000061035156,575.29998779296875,270
64132,regret,2,feedback,1,1.477564834000077,0.5,1,NA,NA,0.5,0.7,0.2,2,372,2,1,3,medium,fixation,FEEDBACK_2,8408,9207,9578,NA,NA,NA,NA,NA,852.4000244140625,596,846.20001220703125,619.5,371
64132,regret,2,feedback,1,1.477564834000077,0.5,1,NA,NA,0.5,0.7,0.2,2,372,2,1,3,medium,fixation,FEEDBACK_2,8408,9705,9981,NA,NA,NA,NA,NA,614,528.70001220703125,608.5999755859375,536.70001220703125,276
64132,regret,2,feedback,1,1.477564834000077,0.5,1,NA,NA,0.5,0.7,0.2,2,372,2,1,3,medium,fixation,FEEDBACK_2,8408,10026,10216,NA,NA,NA,NA,NA,910.4000244140624,622.4000244140625,899.9000244140625,627.4000244140625,190
64132,regret,2,regret,1,1.477564834000077,0.5,1,NA,NA,0.5,0.7,0.2,2,372,2,1,3,medium,fixation,REGRET_2,10401,10653,10778,NA,NA,NA,NA,NA,711.9000244140625,590.70001220703125,703.70001220703125,599,125
64132,regret,2,regret,1,1.477564834000077,0.5,1,NA,NA,0.5,0.7,0.2,2,372,2,1,3,medium,fixation,REGRET_2,10401,10811,11372,NA,NA,NA,NA,NA,859.4000244140625,617.5999755859375,895.4000244140625,639.5999755859375,561
64132,regret,3,choice,1,0.45845220796763897,0.5,0,2,7.927681708009914,0.5,0.7,0.2,2,372,2,1,3,medium,saccade,CHOICE_3,12400,12766,12808,878.29998779296875,579.4000244140625,510.2999877929687,591.79998779296875,42,NA,NA,NA,NA,NA
64132,regret,3,feedback,1,0.45845220796763897,0.5,0,2,7.927681708009914,0.5,0.7,0.2,2,372,2,1,3,medium,saccade,FEEDBACK_3,13054,13212,13243,505.7999877929687,613.4000244140625,484.3999938964844,446.2000122070313,31,NA,NA,NA,NA,NA
64132,regret,3,feedback,1,0.45845220796763897,0.5,0,2,7.927681708009914,0.5,0.7,0.2,2,372,2,1,3,medium,saccade,FEEDBACK_3,13054,13506,13518,466.7000122070313,420.5,464.8999938964844,399.8999938964844,12,NA,NA,NA,NA,NA
64132,regret,3,feedback,1,0.45845220796763897,0.5,0,2,7.927681708009914,0.5,0.7,0.2,2,372,2,1,3,medium,saccade,FEEDBACK_3,13054,13643,13744,453.8999938964844,413,473.3999938964844,559.20001220703125,101,NA,NA,NA,NA,NA
64132,regret,3,feedback,1,0.45845220796763897,0.5,0,2,7.927681708009914,0.5,0.7,0.2,2,372,2,1,3,medium,saccade,FEEDBACK_3,13054,13949,14094,473.2000122070313,600.20001220703125,588,515.0999755859375,145,NA,NA,NA,NA,NA
64132,regret,3,feedback,1,0.45845220796763897,0.5,0,2,7.927681708009914,0.5,0.7,0.2,2,372,2,1,3,medium,saccade,FEEDBACK_3,13054,14534,14649,600.5999755859375,543.70001220703125,460.1000061035156,453.7999877929687,115,NA,NA,NA,NA,NA
64132,regret,3,feedback,1,0.45845220796763897,0.5,0,2,7.927681708009914,0.5,0.7,0.2,2,372,2,1,3,medium,saccade,FEEDBACK_3,13054,14893,14919,461.7000122070313,462.7999877929687,528.79998779296875,590.29998779296875,26,NA,NA,NA,NA,NA
64132,regret,3,regret,1,0.45845220796763897,0.5,0,2,7.927681708009914,0.5,0.7,0.2,2,372,2,1,3,medium,saccade,REGRET_3,15050,15233,15274,538.70001220703125,597,852,851.5999755859375,41,NA,NA,NA,NA,NA
64132,regret,3,regret,1,0.45845220796763897,0.5,0,2,7.927681708009914,0.5,0.7,0.2,2,372,2,1,3,medium,saccade,REGRET_3,15050,15474,15492,835.70001220703125,856.70001220703125,802.4000244140625,921.9000244140624,18,NA,NA,NA,NA,NA
64132,regret,3,regret,1,0.45845220796763897,0.5,0,2,7.927681708009914,0.5,0.7,0.2,2,372,2,1,3,medium,saccade,REGRET_3,15050,15675,15697,788.70001220703125,938,738.0999755859375,892.4000244140625,22,NA,NA,NA,NA,NA
64132,regret,3,regret,1,0.45845220796763897,0.5,0,2,7.927681708009914,0.5,0.7,0.2,2,372,2,1,3,medium,saccade,REGRET_3,15050,15835,15903,714.4000244140625,888,759.70001220703125,787.5,68,NA,NA,NA,NA,NA
64132,regret,3,regret,1,0.45845220796763897,0.5,0,2,7.927681708009914,0.5,0.7,0.2,2,372,2,1,3,medium,saccade,REGRET_3,15050,16071,16095,757.20001220703125,791.4000244140625,882.5999755859375,785.9000244140625,24,NA,NA,NA,NA,NA
64132,regret,3,regret,1,0.45845220796763897,0.5,0,2,7.927681708009914,0.5,0.7,0.2,2,372,2,1,3,medium,saccade,REGRET_3,15050,16309,16331,898.0999755859375,788.5,985.20001220703125,791.0999755859375,22,NA,NA,NA,NA,NA
64132,regret,3,regret,1,0.45845220796763897,0.5,0,2,7.927681708009914,0.5,0.7,0.2,2,372,2,1,3,medium,saccade,REGRET_3,15050,16475,16514,1003.9000244140624,795.5999755859375,754.4000244140625,831.70001220703125,39,NA,NA,NA,NA,NA
64132,regret,3,regret,1,0.45845220796763897,0.5,0,2,7.927681708009914,0.5,0.7,0.2,2,372,2,1,3,medium,saccade,REGRET_3,15050,16726,16854,760.29998779296875,837.70001220703125,933.70001220703125,803.29998779296875,128,NA,NA,NA,NA,NA
64132,regret,3,regret,1,0.45845220796763897,0.5,0,2,7.927681708009914,0.5,0.7,0.2,2,372,2,1,3,medium,saccade,REGRET_3,15050,17043,17056,934,807.5,970.5,804.5,13,NA,NA,NA,NA,NA
64132,regret,3,regret,1,0.45845220796763897,0.5,0,2,7.927681708009914,0.5,0.7,0.2,2,372,2,1,3,medium,saccade,REGRET_3,15050,17229,17259,975.5999755859376,806.20001220703125,792.79998779296875,844.5999755859375,30,NA,NA,NA,NA,NA
64132,regret,3,regret,1,0.45845220796763897,0.5,0,2,7.927681708009914,0.5,0.7,0.2,2,372,2,1,3,medium,saccade,REGRET_3,15050,17505,17525,768.9000244140625,842.5,772.0999755859375,925.70001220703125,20,NA,NA,NA,NA,NA
64132,regret,3,regret,1,0.45845220796763897,0.5,0,2,7.927681708009914,0.5,0.7,0.2,2,372,2,1,3,medium,saccade,REGRET_3,15050,17671,17690,772.20001220703125,927.5999755859376,700.20001220703125,934.20001220703125,19,NA,NA,NA,NA,NA
64132,regret,3,regret,1,0.45845220796763897,0.5,0,2,7.927681708009914,0.5,0.7,0.2,2,372,2,1,3,medium,saccade,REGRET_3,15050,17867,18031,695.70001220703125,939.70001220703125,867.5999755859375,921.0999755859376,164,NA,NA,NA,NA,NA
64132,regret,3,regret,1,0.45845220796763897,0.5,0,2,7.927681708009914,0.5,0.7,0.2,2,372,2,1,3,medium,saccade,REGRET_3,15050,18194,18213,854.70001220703125,923.79998779296875,851.70001220703125,872.0999755859375,19,NA,NA,NA,NA,NA
64132,regret,3,regret,1,0.45845220796763897,0.5,0,2,7.927681708009914,0.5,0.7,0.2,2,372,2,1,3,medium,saccade,REGRET_3,15050,18402,18426,853.70001220703125,849,925,822.9000244140625,24,NA,NA,NA,NA,NA
64132,regret,3,regret,1,0.45845220796763897,0.5,0,2,7.927681708009914,0.5,0.7,0.2,2,372,2,1,3,medium,saccade,REGRET_3,15050,18616,18648,942,825,758,840.5999755859375,32,NA,NA,NA,NA,NA
64132,regret,3,regret,1,0.45845220796763897,0.5,0,2,7.927681708009914,0.5,0.7,0.2,2,372,2,1,3,medium,saccade,REGRET_3,15050,18730,18924,748,853.70001220703125,747.70001220703125,854.0999755859375,194,NA,NA,NA,NA,NA
64132,regret,3,regret,1,0.45845220796763897,0.5,0,2,7.927681708009914,0.5,0.7,0.2,2,372,2,1,3,medium,saccade,REGRET_3,15050,19021,19053,871.29998779296875,848.70001220703125,1028.699951171875,965.4000244140624,32,NA,NA,NA,NA,NA
64132,regret,3,regret,1,0.45845220796763897,0.5,0,2,7.927681708009914,0.5,0.7,0.2,2,372,2,1,3,medium,saccade,REGRET_3,15050,19174,19183,1030.5999755859375,960.5,1029.0999755859375,942.5,9,NA,NA,NA,NA,NA
64132,regret,3,regret,1,0.45845220796763897,0.5,0,2,7.927681708009914,0.5,0.7,0.2,2,372,2,1,3,medium,saccade,REGRET_3,15050,19438,19467,1029.5999755859375,934.5,861.5999755859375,908.29998779296875,29,NA,NA,NA,NA,NA
64132,regret,3,regret,1,0.45845220796763897,0.5,0,2,7.927681708009914,0.5,0.7,0.2,2,372,2,1,3,medium,saccade,REGRET_3,15050,19608,19966,834.5,920,834.5999755859375,920.79998779296875,358,NA,NA,NA,NA,NA
64132,regret,3,regret,1,0.45845220796763897,0.5,0,2,7.927681708009914,0.5,0.7,0.2,2,372,2,1,3,medium,saccade,REGRET_3,15050,20042,20057,766.29998779296875,923.79998779296875,814.9000244140625,937.5999755859376,15,NA,NA,NA,NA,NA
64132,regret,3,regret,1,0.45845220796763897,0.5,0,2,7.927681708009914,0.5,0.7,0.2,2,372,2,1,3,medium,saccade,REGRET_3,15050,20435,20440,831.5999755859375,933.70001220703125,839.79998779296875,926.4000244140624,5,NA,NA,NA,NA,NA
64132,regret,3,regret,1,0.45845220796763897,0.5,0,2,7.927681708009914,0.5,0.7,0.2,2,372,2,1,3,medium,saccade,REGRET_3,15050,20792,20803,846.0999755859375,937.5,832.70001220703125,919.5,11,NA,NA,NA,NA,NA
64132,regret,3,regret,1,0.45845220796763897,0.5,0,2,7.927681708009914,0.5,0.7,0.2,2,372,2,1,3,medium,saccade,REGRET_3,15050,21043,21067,833.20001220703125,920.5,706.4000244140625,941,24,NA,NA,NA,NA,NA
64132,regret,3,regret,1,0.45845220796763897,0.5,0,2,7.927681708009914,0.5,0.7,0.2,2,372,2,1,3,medium,saccade,REGRET_3,15050,21255,21488,692.20001220703125,945.20001220703125,782.70001220703125,932.79998779296875,233,NA,NA,NA,NA,NA
64132,regret,3,regret,1,0.45845220796763897,0.5,0,2,7.927681708009914,0.5,0.7,0.2,2,372,2,1,3,medium,saccade,REGRET_3,15050,21566,21583,785.70001220703125,928.4000244140624,845.0999755859375,903.4000244140624,17,NA,NA,NA,NA,NA
64132,regret,3,regret,1,0.45845220796763897,0.5,0,2,7.927681708009914,0.5,0.7,0.2,2,372,2,1,3,medium,saccade,REGRET_3,15050,21856,21892,854.20001220703125,888.0999755859375,712,772.5,36,NA,NA,NA,NA,NA
64132,regret,3,regret,1,0.45845220796763897,0.5,0,2,7.927681708009914,0.5,0.7,0.2,2,372,2,1,3,medium,saccade,REGRET_3,15050,22094,22123,690.4000244140625,773.29998779296875,699.29998779296875,915.4000244140624,29,NA,NA,NA,NA,NA
64132,regret,3,regret,1,0.45845220796763897,0.5,0,2,7.927681708009914,0.5,0.7,0.2,2,372,2,1,3,medium,saccade,REGRET_3,15050,22437,22448,690.20001220703125,922.5,671.9000244140625,912.5999755859376,11,NA,NA,NA,NA,NA
64132,regret,3,regret,1,0.45845220796763897,0.5,0,2,7.927681708009914,0.5,0.7,0.2,2,372,2,1,3,medium,saccade,REGRET_3,15050,22709,22735,665.0999755859375,915.20001220703125,817.4000244140625,917.29998779296875,26,NA,NA,NA,NA,NA
64132,regret,3,regret,1,0.45845220796763897,0.5,0,2,7.927681708009914,0.5,0.7,0.2,2,372,2,1,3,medium,saccade,REGRET_3,15050,23280,23321,845.5999755859375,919.9000244140624,881.5,751.5,41,NA,NA,NA,NA,NA
64132,regret,3,regret,1,0.45845220796763897,0.5,0,2,7.927681708009914,0.5,0.7,0.2,2,372,2,1,3,medium,saccade,REGRET_3,15050,23636,23826,861.4000244140625,746.79998779296875,854.5999755859375,659,190,NA,NA,NA,NA,NA
64132,regret,3,feedback,1,0.45845220796763897,0.5,0,2,7.927681708009914,0.5,0.7,0.2,2,372,2,1,3,medium,fixation,FEEDBACK_3,13054,13244,13505,NA,NA,NA,NA,NA,484.6000061035156,441.3999938964844,467,421.2000122070313,261
64132,regret,3,feedback,1,0.45845220796763897,0.5,0,2,7.927681708009914,0.5,0.7,0.2,2,372,2,1,3,medium,fixation,FEEDBACK_3,13054,13519,13642,NA,NA,NA,NA,NA,463.2999877929687,398,454.2999877929687,415.8999938964844,123
64132,regret,3,feedback,1,0.45845220796763897,0.5,0,2,7.927681708009914,0.5,0.7,0.2,2,372,2,1,3,medium,fixation,FEEDBACK_3,13054,13745,13948,NA,NA,NA,NA,NA,473.2000122070313,563.79998779296875,473.2999877929687,599.70001220703125,203
64132,regret,3,feedback,1,0.45845220796763897,0.5,0,2,7.927681708009914,0.5,0.7,0.2,2,372,2,1,3,medium,fixation,FEEDBACK_3,13054,14095,14533,NA,NA,NA,NA,NA,588.20001220703125,515.9000244140625,599.5,545.5999755859375,438
64132,regret,3,feedback,1,0.45845220796763897,0.5,0,2,7.927681708009914,0.5,0.7,0.2,2,372,2,1,3,medium,fixation,FEEDBACK_3,13054,14650,14892,NA,NA,NA,NA,NA,460,454.8999938964844,461.5,462.1000061035156,242
64132,regret,3,regret,1,0.45845220796763897,0.5,0,2,7.927681708009914,0.5,0.7,0.2,2,372,2,1,3,medium,fixation,REGRET_3,15050,15275,15473,NA,NA,NA,NA,NA,853.0999755859375,853,836.29998779296875,856.4000244140625,198
64132,regret,3,regret,1,0.45845220796763897,0.5,0,2,7.927681708009914,0.5,0.7,0.2,2,372,2,1,3,medium,fixation,REGRET_3,15050,15493,15674,NA,NA,NA,NA,NA,802.5,922.70001220703125,788.70001220703125,938.5,181
64132,regret,3,regret,1,0.45845220796763897,0.5,0,2,7.927681708009914,0.5,0.7,0.2,2,372,2,1,3,medium,fixation,REGRET_3,15050,15698,15834,NA,NA,NA,NA,NA,736.5,889.79998779296875,715.0999755859375,888.0999755859375,136
64132,regret,3,regret,1,0.45845220796763897,0.5,0,2,7.927681708009914,0.5,0.7,0.2,2,372,2,1,3,medium,fixation,REGRET_3,15050,15904,16070,NA,NA,NA,NA,NA,760.0999755859375,788.5,757.20001220703125,791.5,166
64132,regret,3,regret,1,0.45845220796763897,0.5,0,2,7.927681708009914,0.5,0.7,0.2,2,372,2,1,3,medium,fixation,REGRET_3,15050,16096,16308,NA,NA,NA,NA,NA,886.29998779296875,785.9000244140625,896.79998779296875,788.4000244140625,212
64132,regret,3,regret,1,0.45845220796763897,0.5,0,2,7.927681708009914,0.5,0.7,0.2,2,372,2,1,3,medium,fixation,REGRET_3,15050,16332,16474,NA,NA,NA,NA,NA,988,790.79998779296875,1003.7999877929688,795.5999755859375,142
64132,regret,3,regret,1,0.45845220796763897,0.5,0,2,7.927681708009914,0.5,0.7,0.2,2,372,2,1,3,medium,fixation,REGRET_3,15050,16515,16725,NA,NA,NA,NA,NA,753.0999755859375,831,760.5999755859375,836.4000244140625,210
64132,regret,3,regret,1,0.45845220796763897,0.5,0,2,7.927681708009914,0.5,0.7,0.2,2,372,2,1,3,medium,fixation,REGRET_3,15050,16855,17042,NA,NA,NA,NA,NA,933.5,804.0999755859375,932.5,807.5,187
64132,regret,3,regret,1,0.45845220796763897,0.5,0,2,7.927681708009914,0.5,0.7,0.2,2,372,2,1,3,medium,fixation,REGRET_3,15050,17057,17228,NA,NA,NA,NA,NA,971.5,804,975.70001220703125,806,171
64132,regret,3,regret,1,0.45845220796763897,0.5,0,2,7.927681708009914,0.5,0.7,0.2,2,372,2,1,3,medium,fixation,REGRET_3,15050,17260,17504,NA,NA,NA,NA,NA,787.4000244140625,844.0999755859375,768.4000244140625,842.4000244140625,244
64132,regret,3,regret,1,0.45845220796763897,0.5,0,2,7.927681708009914,0.5,0.7,0.2,2,372,2,1,3,medium,fixation,REGRET_3,15050,17526,17670,NA,NA,NA,NA,NA,771.5999755859375,927.70001220703125,772.9000244140625,927,144
64132,regret,3,regret,1,0.45845220796763897,0.5,0,2,7.927681708009914,0.5,0.7,0.2,2,372,2,1,3,medium,fixation,REGRET_3,15050,17691,17866,NA,NA,NA,NA,NA,698.5,934.5,695.5999755859375,939.20001220703125,175
64132,regret,3,regret,1,0.45845220796763897,0.5,0,2,7.927681708009914,0.5,0.7,0.2,2,372,2,1,3,medium,fixation,REGRET_3,15050,18032,18193,NA,NA,NA,NA,NA,867.5999755859375,921.0999755859376,854.5,925.20001220703125,161
64132,regret,3,regret,1,0.45845220796763897,0.5,0,2,7.927681708009914,0.5,0.7,0.2,2,372,2,1,3,medium,fixation,REGRET_3,15050,18214,18401,NA,NA,NA,NA,NA,851.79998779296875,869.9000244140625,853.9000244140625,849.20001220703125,187
64132,regret,3,regret,1,0.45845220796763897,0.5,0,2,7.927681708009914,0.5,0.7,0.2,2,372,2,1,3,medium,fixation,REGRET_3,15050,18427,18615,NA,NA,NA,NA,NA,928.29998779296875,822.79998779296875,942.29998779296875,825.0999755859375,188
64132,regret,3,regret,1,0.45845220796763897,0.5,0,2,7.927681708009914,0.5,0.7,0.2,2,372,2,1,3,medium,fixation,REGRET_3,15050,18649,18729,NA,NA,NA,NA,NA,756,840,748.4000244140625,853.20001220703125,80
64132,regret,3,regret,1,0.45845220796763897,0.5,0,2,7.927681708009914,0.5,0.7,0.2,2,372,2,1,3,medium,fixation,REGRET_3,15050,18925,19020,NA,NA,NA,NA,NA,871.9000244140625,842.79998779296875,871.5,849,95
64132,regret,3,regret,1,0.45845220796763897,0.5,0,2,7.927681708009914,0.5,0.7,0.2,2,372,2,1,3,medium,fixation,REGRET_3,15050,19054,19173,NA,NA,NA,NA,NA,1031.199951171875,965.4000244140624,1030.699951171875,962.4000244140624,119
64132,regret,3,regret,1,0.45845220796763897,0.5,0,2,7.927681708009914,0.5,0.7,0.2,2,372,2,1,3,medium,fixation,REGRET_3,15050,19184,19437,NA,NA,NA,NA,NA,1029.800048828125,940.5,1029.5999755859375,934.79998779296875,253
64132,regret,3,regret,1,0.45845220796763897,0.5,0,2,7.927681708009914,0.5,0.7,0.2,2,372,2,1,3,medium,fixation,REGRET_3,15050,19468,19607,NA,NA,NA,NA,NA,857.0999755859375,906.9000244140624,834.5,918.5999755859376,139
64132,regret,3,regret,1,0.45845220796763897,0.5,0,2,7.927681708009914,0.5,0.7,0.2,2,372,2,1,3,medium,fixation,REGRET_3,15050,19967,20041,NA,NA,NA,NA,NA,761,922.5,765.29998779296875,922.5999755859376,74
64132,regret,3,regret,1,0.45845220796763897,0.5,0,2,7.927681708009914,0.5,0.7,0.2,2,372,2,1,3,medium,fixation,REGRET_3,15050,20058,20434,NA,NA,NA,NA,NA,816,938.0999755859376,830.4000244140625,934.5999755859376,376
64132,regret,3,regret,1,0.45845220796763897,0.5,0,2,7.927681708009914,0.5,0.7,0.2,2,372,2,1,3,medium,fixation,REGRET_3,15050,20441,20791,NA,NA,NA,NA,NA,841.20001220703125,925.79998779296875,846.5,939,350
64132,regret,3,regret,1,0.45845220796763897,0.5,0,2,7.927681708009914,0.5,0.7,0.2,2,372,2,1,3,medium,fixation,REGRET_3,15050,20804,21042,NA,NA,NA,NA,NA,831.29998779296875,917.79998779296875,833.79998779296875,919.5999755859376,238
64132,regret,3,regret,1,0.45845220796763897,0.5,0,2,7.927681708009914,0.5,0.7,0.2,2,372,2,1,3,medium,fixation,REGRET_3,15050,21068,21254,NA,NA,NA,NA,NA,702.9000244140625,941.5999755859376,691.70001220703125,944.29998779296875,186
64132,regret,3,regret,1,0.45845220796763897,0.5,0,2,7.927681708009914,0.5,0.7,0.2,2,372,2,1,3,medium,fixation,REGRET_3,15050,21489,21565,NA,NA,NA,NA,NA,782.70001220703125,933.0999755859376,785,928.9000244140624,76
64132,regret,3,regret,1,0.45845220796763897,0.5,0,2,7.927681708009914,0.5,0.7,0.2,2,372,2,1,3,medium,fixation,REGRET_3,15050,21584,21855,NA,NA,NA,NA,NA,847,903,854,888.79998779296875,271
64132,regret,3,regret,1,0.45845220796763897,0.5,0,2,7.927681708009914,0.5,0.7,0.2,2,372,2,1,3,medium,fixation,REGRET_3,15050,21893,22093,NA,NA,NA,NA,NA,708.29998779296875,770,690.20001220703125,772.9000244140625,200
64132,regret,3,regret,1,0.45845220796763897,0.5,0,2,7.927681708009914,0.5,0.7,0.2,2,372,2,1,3,medium,fixation,REGRET_3,15050,22124,22436,NA,NA,NA,NA,NA,699.70001220703125,915.79998779296875,691.29998779296875,923.70001220703125,312
64132,regret,3,regret,1,0.45845220796763897,0.5,0,2,7.927681708009914,0.5,0.7,0.2,2,372,2,1,3,medium,fixation,REGRET_3,15050,22449,22708,NA,NA,NA,NA,NA,670.5999755859375,912.4000244140624,664.5999755859375,914.9000244140624,259
64132,regret,3,regret,1,0.45845220796763897,0.5,0,2,7.927681708009914,0.5,0.7,0.2,2,372,2,1,3,medium,fixation,REGRET_3,15050,22736,23279,NA,NA,NA,NA,NA,821.20001220703125,917.29998779296875,845.5999755859375,920.5,543
64132,regret,3,regret,1,0.45845220796763897,0.5,0,2,7.927681708009914,0.5,0.7,0.2,2,372,2,1,3,medium,fixation,REGRET_3,15050,23322,23635,NA,NA,NA,NA,NA,880.9000244140625,747,860.9000244140625,746.20001220703125,313
64132,regret,4,choice,2,0.7563305419753306,0.7,0,2,2.362353709002491,0.5,0.7,0.2,2,372,2,1,3,best,saccade,CHOICE_4,24975,25448,25493,882.5,627.5999755859375,1228.300048828125,594.9000244140625,45,NA,NA,NA,NA,NA
64132,regret,4,choice,2,0.7563305419753306,0.7,0,2,2.362353709002491,0.5,0.7,0.2,2,372,2,1,3,best,saccade,CHOICE_4,24975,25644,25685,1227.300048828125,595.20001220703125,884.5999755859375,600.5999755859375,41,NA,NA,NA,NA,NA
64132,regret,4,feedback,2,0.7563305419753306,0.7,0,2,2.362353709002491,0.5,0.7,0.2,2,372,2,1,3,best,saccade,FEEDBACK_4,25762,25930,25958,868.29998779296875,604.5999755859375,855.0999755859375,459.5,28,NA,NA,NA,NA,NA
64132,regret,4,feedback,2,0.7563305419753306,0.7,0,2,2.362353709002491,0.5,0.7,0.2,2,372,2,1,3,best,saccade,FEEDBACK_4,25762,26209,26371,852.9000244140625,437.2999877929687,865.20001220703125,530,162,NA,NA,NA,NA,NA
64132,regret,4,feedback,2,0.7563305419753306,0.7,0,2,2.362353709002491,0.5,0.7,0.2,2,372,2,1,3,best,saccade,FEEDBACK_4,25762,26627,26643,874.5,556.70001220703125,857,608.70001220703125,16,NA,NA,NA,NA,NA
64132,regret,4,feedback,2,0.7563305419753306,0.7,0,2,2.362353709002491,0.5,0.7,0.2,2,372,2,1,3,best,saccade,FEEDBACK_4,25762,26879,26906,855.5,623.70001220703125,820.79998779296875,785.5999755859375,27,NA,NA,NA,NA,NA
64132,regret,4,feedback,2,0.7563305419753306,0.7,0,2,2.362353709002491,0.5,0.7,0.2,2,372,2,1,3,best,saccade,FEEDBACK_4,25762,27634,27650,832.0999755859375,835.20001220703125,868.5,806,16,NA,NA,NA,NA,NA
64132,regret,4,regret,2,0.7563305419753306,0.7,0,2,2.362353709002491,0.5,0.7,0.2,2,372,2,1,3,best,saccade,REGRET_4,27762,28034,28053,872.9000244140625,801.9000244140625,845.79998779296875,871,19,NA,NA,NA,NA,NA
64132,regret,4,regret,2,0.7563305419753306,0.7,0,2,2.362353709002491,0.5,0.7,0.2,2,372,2,1,3,best,saccade,REGRET_4,27762,28159,28466,844.70001220703125,892.0999755859375,724.70001220703125,924.4000244140624,307,NA,NA,NA,NA,NA
64132,regret,4,regret,2,0.7563305419753306,0.7,0,2,2.362353709002491,0.5,0.7,0.2,2,372,2,1,3,best,saccade,REGRET_4,27762,28814,28840,696,920.0999755859376,839.5,882.9000244140625,26,NA,NA,NA,NA,NA
64132,regret,4,regret,2,0.7563305419753306,0.7,0,2,2.362353709002491,0.5,0.7,0.2,2,372,2,1,3,best,saccade,REGRET_4,27762,29151,29169,864.5,889.20001220703125,857.0999755859375,841.9000244140625,18,NA,NA,NA,NA,NA
64132,regret,4,regret,2,0.7563305419753306,0.7,0,2,2.362353709002491,0.5,0.7,0.2,2,372,2,1,3,best,saccade,REGRET_4,27762,29450,29475,851.4000244140625,824.5,983.79998779296875,844.20001220703125,25,NA,NA,NA,NA,NA
64132,regret,4,regret,2,0.7563305419753306,0.7,0,2,2.362353709002491,0.5,0.7,0.2,2,372,2,1,3,best,saccade,REGRET_4,27762,29656,29672,1004,853,1035.5,883,16,NA,NA,NA,NA,NA
64132,regret,4,regret,2,0.7563305419753306,0.7,0,2,2.362353709002491,0.5,0.7,0.2,2,372,2,1,3,best,saccade,REGRET_4,27762,29967,29998,1042.5999755859375,894.9000244140625,890.79998779296875,855.0999755859375,31,NA,NA,NA,NA,NA
64132,regret,4,regret,2,0.7563305419753306,0.7,0,2,2.362353709002491,0.5,0.7,0.2,2,372,2,1,3,best,saccade,REGRET_4,27762,30474,30503,856.5,848.20001220703125,932.9000244140624,745.4000244140625,29,NA,NA,NA,NA,NA
64132,regret,4,regret,2,0.7563305419753306,0.7,0,2,2.362353709002491,0.5,0.7,0.2,2,372,2,1,3,best,saccade,REGRET_4,27762,30798,31007,936.29998779296875,698.70001220703125,798.5999755859375,664.0999755859375,209,NA,NA,NA,NA,NA
64132,regret,4,fixation,2,0.7563305419753306,0.7,0,2,2.362353709002491,0.5,0.7,0.2,2,372,2,1,3,best,saccade,FIX_4,31124,31323,31337,802.9000244140625,679.79998779296875,837.70001220703125,665,14,NA,NA,NA,NA,NA
64132,regret,4,choice,2,0.7563305419753306,0.7,0,2,2.362353709002491,0.5,0.7,0.2,2,372,2,1,3,best,fixation,CHOICE_4,24975,25494,25643,NA,NA,NA,NA,NA,1229.800048828125,594.79998779296875,1227.5,595.29998779296875,149
64132,regret,4,feedback,2,0.7563305419753306,0.7,0,2,2.362353709002491,0.5,0.7,0.2,2,372,2,1,3,best,fixation,FEEDBACK_4,25762,25959,26208,NA,NA,NA,NA,NA,854.5,454.6000061035156,852.5999755859375,435.5,249
64132,regret,4,feedback,2,0.7563305419753306,0.7,0,2,2.362353709002491,0.5,0.7,0.2,2,372,2,1,3,best,fixation,FEEDBACK_4,25762,26372,26626,NA,NA,NA,NA,NA,865.0999755859375,536.79998779296875,874.70001220703125,555.70001220703125,254
64132,regret,4,feedback,2,0.7563305419753306,0.7,0,2,2.362353709002491,0.5,0.7,0.2,2,372,2,1,3,best,fixation,FEEDBACK_4,25762,26644,26878,NA,NA,NA,NA,NA,856.5999755859375,610.5,855.4000244140625,623.5999755859375,234
64132,regret,4,feedback,2,0.7563305419753306,0.7,0,2,2.362353709002491,0.5,0.7,0.2,2,372,2,1,3,best,fixation,FEEDBACK_4,25762,26907,27633,NA,NA,NA,NA,NA,821.79998779296875,788.79998779296875,831.5,835.9000244140625,726
64132,regret,4,regret,2,0.7563305419753306,0.7,0,2,2.362353709002491,0.5,0.7,0.2,2,372,2,1,3,best,fixation,REGRET_4,27762,28054,28158,NA,NA,NA,NA,NA,845.20001220703125,873.9000244140625,844.5999755859375,891.70001220703125,104
64132,regret,4,regret,2,0.7563305419753306,0.7,0,2,2.362353709002491,0.5,0.7,0.2,2,372,2,1,3,best,fixation,REGRET_4,27762,28467,28813,NA,NA,NA,NA,NA,719.70001220703125,925.20001220703125,696.20001220703125,919.4000244140624,346
64132,regret,4,regret,2,0.7563305419753306,0.7,0,2,2.362353709002491,0.5,0.7,0.2,2,372,2,1,3,best,fixation,REGRET_4,27762,28841,29150,NA,NA,NA,NA,NA,843.70001220703125,882.29998779296875,864.5999755859375,890.70001220703125,309
64132,regret,4,regret,2,0.7563305419753306,0.7,0,2,2.362353709002491,0.5,0.7,0.2,2,372,2,1,3,best,fixation,REGRET_4,27762,29170,29449,NA,NA,NA,NA,NA,857,839.9000244140625,851.29998779296875,824.70001220703125,279
64132,regret,4,regret,2,0.7563305419753306,0.7,0,2,2.362353709002491,0.5,0.7,0.2,2,372,2,1,3,best,fixation,REGRET_4,27762,29476,29655,NA,NA,NA,NA,NA,986.9000244140624,844.9000244140625,1002.7999877929688,852,179
64132,regret,4,regret,2,0.7563305419753306,0.7,0,2,2.362353709002491,0.5,0.7,0.2,2,372,2,1,3,best,fixation,REGRET_4,27762,29673,29966,NA,NA,NA,NA,NA,1036.5,883.9000244140625,1043,894.70001220703125,293
64132,regret,4,regret,2,0.7563305419753306,0.7,0,2,2.362353709002491,0.5,0.7,0.2,2,372,2,1,3,best,fixation,REGRET_4,27762,29999,30473,NA,NA,NA,NA,NA,887.4000244140625,854.0999755859375,855.70001220703125,849,474
64132,regret,4,regret,2,0.7563305419753306,0.7,0,2,2.362353709002491,0.5,0.7,0.2,2,372,2,1,3,best,fixation,REGRET_4,27762,30504,30797,NA,NA,NA,NA,NA,935.20001220703125,740.9000244140625,936.5,697.20001220703125,293
64132,regret,5,choice,3,1.4699076659744603,0.2,0,2,1.2160995840094984,0.5,0.7,0.2,2,372,2,1,3,worst,saccade,CHOICE_5,32118,32520,32569,829.4000244140625,665.5,1273.300048828125,618.29998779296875,49,NA,NA,NA,NA,NA
64132,regret,5,choice,3,1.4699076659744603,0.2,0,2,1.2160995840094984,0.5,0.7,0.2,2,372,2,1,3,worst,saccade,CHOICE_5,32118,32816,32859,1260.5,624.70001220703125,883.0999755859375,610.9000244140625,43,NA,NA,NA,NA,NA
64132,regret,5,choice,3,1.4699076659744603,0.2,0,2,1.2160995840094984,0.5,0.7,0.2,2,372,2,1,3,worst,saccade,CHOICE_5,32118,33051,33097,879.5999755859375,621.4000244140625,469.1000061035156,621.29998779296875,46,NA,NA,NA,NA,NA
64132,regret,5,choice,3,1.4699076659744603,0.2,0,2,1.2160995840094984,0.5,0.7,0.2,2,372,2,1,3,worst,saccade,CHOICE_5,32118,33342,33406,473.1000061035156,622.9000244140625,1299.0999755859375,603,64,NA,NA,NA,NA,NA
64132,regret,5,feedback,3,1.4699076659744603,0.2,0,2,1.2160995840094984,0.5,0.7,0.2,2,372,2,1,3,worst,saccade,FEEDBACK_5,33631,33801,33826,1264.0999755859375,604.9000244140625,1279.4000244140625,483.1000061035156,25,NA,NA,NA,NA,NA
64132,regret,5,feedback,3,1.4699076659744603,0.2,0,2,1.2160995840094984,0.5,0.7,0.2,2,372,2,1,3,worst,saccade,FEEDBACK_5,33631,34148,34421,1284.800048828125,469.1000061035156,841.5,739.4000244140625,273,NA,NA,NA,NA,NA
64132,regret,5,feedback,3,1.4699076659744603,0.2,0,2,1.2160995840094984,0.5,0.7,0.2,2,372,2,1,3,worst,saccade,FEEDBACK_5,33631,34974,34997,858.4000244140625,739.9000244140625,939.5,795.29998779296875,23,NA,NA,NA,NA,NA
64132,regret,5,regret,3,1.4699076659744603,0.2,0,2,1.2160995840094984,0.5,0.7,0.2,2,372,2,1,3,worst,saccade,REGRET_5,35629,35723,35745,947,870.79998779296875,857,828.5999755859375,22,NA,NA,NA,NA,NA
64132,regret,5,regret,3,1.4699076659744603,0.2,0,2,1.2160995840094984,0.5,0.7,0.2,2,372,2,1,3,worst,saccade,REGRET_5,35629,35895,35913,831.9000244140625,833.70001220703125,847.70001220703125,895.5,18,NA,NA,NA,NA,NA
64132,regret,5,regret,3,1.4699076659744603,0.2,0,2,1.2160995840094984,0.5,0.7,0.2,2,372,2,1,3,worst,saccade,REGRET_5,35629,36068,36223,851.20001220703125,919.0999755859376,684.79998779296875,919.5999755859376,155,NA,NA,NA,NA,NA
64132,regret,5,regret,3,1.4699076659744603,0.2,0,2,1.2160995840094984,0.5,0.7,0.2,2,372,2,1,3,worst,saccade,REGRET_5,35629,36523,36549,689.70001220703125,926.5,829.5999755859375,922.4000244140624,26,NA,NA,NA,NA,NA
64132,regret,5,regret,3,1.4699076659744603,0.2,0,2,1.2160995840094984,0.5,0.7,0.2,2,372,2,1,3,worst,saccade,REGRET_5,35629,37039,37088,848.0999755859375,938.20001220703125,877.4000244140625,708.29998779296875,49,NA,NA,NA,NA,NA
64132,regret,5,fixation,3,1.4699076659744603,0.2,0,2,1.2160995840094984,0.5,0.7,0.2,2,372,2,1,3,worst,saccade,FIX_5,37852,38021,38036,870.20001220703125,724,861.79998779296875,685.0999755859375,15,NA,NA,NA,NA,NA
64132,regret,5,fixation,3,1.4699076659744603,0.2,0,2,1.2160995840094984,0.5,0.7,0.2,2,372,2,1,3,worst,saccade,FIX_5,37852,38577,38590,865.79998779296875,677.79998779296875,847.70001220703125,654.4000244140625,13,NA,NA,NA,NA,NA
64132,regret,5,choice,3,1.4699076659744603,0.2,0,2,1.2160995840094984,0.5,0.7,0.2,2,372,2,1,3,worst,fixation,CHOICE_5,32118,32570,32815,NA,NA,NA,NA,NA,1274,618.29998779296875,1261.300048828125,623.70001220703125,245
64132,regret,5,choice,3,1.4699076659744603,0.2,0,2,1.2160995840094984,0.5,0.7,0.2,2,372,2,1,3,worst,fixation,CHOICE_5,32118,32860,33050,NA,NA,NA,NA,NA,882,611.0999755859375,879.5,621.70001220703125,190
64132,regret,5,choice,3,1.4699076659744603,0.2,0,2,1.2160995840094984,0.5,0.7,0.2,2,372,2,1,3,worst,fixation,CHOICE_5,32118,33098,33341,NA,NA,NA,NA,NA,468.7000122070313,620.79998779296875,473.2999877929687,622,243
64132,regret,5,feedback,3,1.4699076659744603,0.2,0,2,1.2160995840094984,0.5,0.7,0.2,2,372,2,1,3,worst,fixation,FEEDBACK_5,33631,33827,34147,NA,NA,NA,NA,NA,1280.300048828125,478.7999877929687,1284.5,467.5,320
64132,regret,5,feedback,3,1.4699076659744603,0.2,0,2,1.2160995840094984,0.5,0.7,0.2,2,372,2,1,3,worst,fixation,FEEDBACK_5,33631,34422,34973,NA,NA,NA,NA,NA,841.5999755859375,740.70001220703125,858.0999755859375,740,551
64132,regret,5,regret,3,1.4699076659744603,0.2,0,2,1.2160995840094984,0.5,0.7,0.2,2,372,2,1,3,worst,fixation,REGRET_5,35629,35746,35894,NA,NA,NA,NA,NA,854.5999755859375,827.79998779296875,831.79998779296875,833.29998779296875,148
64132,regret,5,regret,3,1.4699076659744603,0.2,0,2,1.2160995840094984,0.5,0.7,0.2,2,372,2,1,3,worst,fixation,REGRET_5,35629,35914,36067,NA,NA,NA,NA,NA,848.4000244140625,896.5,851.5999755859375,917.79998779296875,153
64132,regret,5,regret,3,1.4699076659744603,0.2,0,2,1.2160995840094984,0.5,0.7,0.2,2,372,2,1,3,worst,fixation,REGRET_5,35629,36224,36522,NA,NA,NA,NA,NA,684.70001220703125,920.29998779296875,690.0999755859375,926.5999755859376,298
64132,regret,5,regret,3,1.4699076659744603,0.2,0,2,1.2160995840094984,0.5,0.7,0.2,2,372,2,1,3,worst,fixation,REGRET_5,35629,36550,37038,NA,NA,NA,NA,NA,834.0999755859375,921.79998779296875,848.4000244140625,938.4000244140624,488
64132,regret,5,fixation,3,1.4699076659744603,0.2,0,2,1.2160995840094984,0.5,0.7,0.2,2,372,2,1,3,worst,fixation,FIX_5,37852,38037,38576,NA,NA,NA,NA,NA,862.20001220703125,683.0999755859375,866.29998779296875,678.9000244140625,539
64132,regret,6,choice,1,0.6487435000017285,0.5,1,NA,NA,0.5,0.7,0.2,3,372,2,1,3,medium,saccade,CHOICE_6,38852,39131,39177,845.70001220703125,632.70001220703125,558.4000244140625,611.79998779296875,46,NA,NA,NA,NA,NA
64132,regret,6,feedback,1,0.6487435000017285,0.5,1,NA,NA,0.5,0.7,0.2,3,372,2,1,3,medium,saccade,FEEDBACK_6,39536,39701,39731,547.20001220703125,607.70001220703125,472.7999877929687,469,30,NA,NA,NA,NA,NA
64132,regret,6,feedback,1,0.6487435000017285,0.5,1,NA,NA,0.5,0.7,0.2,3,372,2,1,3,medium,saccade,FEEDBACK_6,39536,40047,40188,458,461.3999938964844,511.6000061035156,549.29998779296875,141,NA,NA,NA,NA,NA
64132,regret,6,feedback,1,0.6487435000017285,0.5,1,NA,NA,0.5,0.7,0.2,3,372,2,1,3,medium,saccade,FEEDBACK_6,39536,40707,40748,500.1000061035156,575.0999755859375,821.5,617.4000244140625,41,NA,NA,NA,NA,NA
64132,regret,6,regret,1,0.6487435000017285,0.5,1,NA,NA,0.5,0.7,0.2,3,372,2,1,3,medium,saccade,REGRET_6,41524,41799,41832,832.5999755859375,650.4000244140625,1004.7000122070312,638.5999755859375,33,NA,NA,NA,NA,NA
64132,regret,6,regret,1,0.6487435000017285,0.5,1,NA,NA,0.5,0.7,0.2,3,372,2,1,3,medium,saccade,REGRET_6,41524,42179,42202,1059.5999755859375,659.9000244140625,957.9000244140624,634.5,23,NA,NA,NA,NA,NA
64132,regret,6,fixation,1,0.6487435000017285,0.5,1,NA,NA,0.5,0.7,0.2,3,372,2,1,3,medium,saccade,FIX_6,42519,42637,42655,920,638.9000244140625,868.29998779296875,616.5,18,NA,NA,NA,NA,NA
64132,regret,6,feedback,1,0.6487435000017285,0.5,1,NA,NA,0.5,0.7,0.2,3,372,2,1,3,medium,fixation,FEEDBACK_6,39536,39732,40046,NA,NA,NA,NA,NA,470.2000122070313,465.5,456.7999877929687,459.7999877929687,314
64132,regret,6,feedback,1,0.6487435000017285,0.5,1,NA,NA,0.5,0.7,0.2,3,372,2,1,3,medium,fixation,FEEDBACK_6,39536,40189,40706,NA,NA,NA,NA,NA,511.7999877929687,550.70001220703125,500.2000122070313,575.20001220703125,517
64132,regret,6,regret,1,0.6487435000017285,0.5,1,NA,NA,0.5,0.7,0.2,3,372,2,1,3,medium,fixation,REGRET_6,41524,41833,42178,NA,NA,NA,NA,NA,1008.9000244140624,638.5999755859375,1060.300048828125,659.9000244140625,345
64132,regret,7,choice,1,0.38910387497162446,0.5,1,NA,NA,0.5,0.7,0.2,4,372,2,1,3,medium,saccade,CHOICE_7,43519,43781,43828,850.70001220703125,627.29998779296875,465.6000061035156,595.20001220703125,47,NA,NA,NA,NA,NA
64132,regret,7,feedback,1,0.38910387497162446,0.5,1,NA,NA,0.5,0.7,0.2,4,372,2,1,3,medium,saccade,FEEDBACK_7,43954,44107,44134,453,594.29998779296875,460.2000122070313,460.3999938964844,27,NA,NA,NA,NA,NA
64132,regret,7,feedback,1,0.38910387497162446,0.5,1,NA,NA,0.5,0.7,0.2,4,372,2,1,3,medium,saccade,FEEDBACK_7,43954,44450,44582,464,444.2000122070313,677.0999755859375,555.9000244140625,132,NA,NA,NA,NA,NA
64132,regret,7,regret,1,0.38910387497162446,0.5,1,NA,NA,0.5,0.7,0.2,4,372,2,1,3,medium,saccade,REGRET_7,45941,45946,46127,695.79998779296875,646.5999755859375,660.4000244140625,639.4000244140625,181,NA,NA,NA,NA,NA
64132,regret,7,regret,1,0.38910387497162446,0.5,1,NA,NA,0.5,0.7,0.2,4,372,2,1,3,medium,saccade,REGRET_7,45941,46320,46353,660.70001220703125,649.0999755859375,824.0999755859375,650.5,33,NA,NA,NA,NA,NA
64132,regret,7,regret,1,0.38910387497162446,0.5,1,NA,NA,0.5,0.7,0.2,4,372,2,1,3,medium,saccade,REGRET_7,45941,46742,46756,841,676.70001220703125,848.9000244140625,647.5,14,NA,NA,NA,NA,NA
64132,regret,7,feedback,1,0.38910387497162446,0.5,1,NA,NA,0.5,0.7,0.2,4,372,2,1,3,medium,fixation,FEEDBACK_7,43954,44135,44449,NA,NA,NA,NA,NA,460.1000061035156,455.8999938964844,463.7999877929687,442.2999877929687,314
64132,regret,7,regret,1,0.38910387497162446,0.5,1,NA,NA,0.5,0.7,0.2,4,372,2,1,3,medium,fixation,REGRET_7,45941,46128,46319,NA,NA,NA,NA,NA,660.4000244140625,640.79998779296875,660.4000244140625,648.70001220703125,191
64132,regret,7,regret,1,0.38910387497162446,0.5,1,NA,NA,0.5,0.7,0.2,4,372,2,1,3,medium,fixation,REGRET_7,45941,46354,46741,NA,NA,NA,NA,NA,828.9000244140625,651,841.0999755859375,678,387
64132,regret,8,choice,2,0.3597296249936335,0.7,1,NA,NA,0.5,0.7,0.2,5,372,2,1,3,best,saccade,CHOICE_8,47936,48179,48186,845.79998779296875,610.29998779296875,844.9000244140625,598.4000244140625,7,NA,NA,NA,NA,NA
64132,regret,8,feedback,2,0.3597296249936335,0.7,1,NA,NA,0.5,0.7,0.2,5,372,2,1,3,best,saccade,FEEDBACK_8,48324,48485,48511,855,595.29998779296875,847.5999755859375,455.2000122070313,26,NA,NA,NA,NA,NA
64132,regret,8,feedback,2,0.3597296249936335,0.7,1,NA,NA,0.5,0.7,0.2,5,372,2,1,3,best,saccade,FEEDBACK_8,48324,49090,49133,863.29998779296875,441.1000061035156,1210.4000244140625,561.0999755859375,43,NA,NA,NA,NA,NA
64132,regret,8,feedback,2,0.3597296249936335,0.7,1,NA,NA,0.5,0.7,0.2,5,372,2,1,3,best,saccade,FEEDBACK_8,48324,49861,50016,1223,608.0999755859375,1240.0999755859375,528.5999755859375,155,NA,NA,NA,NA,NA
64132,regret,8,feedback,2,0.3597296249936335,0.7,1,NA,NA,0.5,0.7,0.2,5,372,2,1,3,best,saccade,FEEDBACK_8,48324,50188,50225,1156.0999755859375,605,900.4000244140625,609.0999755859375,37,NA,NA,NA,NA,NA
64132,regret,8,regret,2,0.3597296249936335,0.7,1,NA,NA,0.5,0.7,0.2,5,372,2,1,3,best,saccade,REGRET_8,50307,50601,50841,895.0999755859375,639.0999755859375,838.70001220703125,637.79998779296875,240,NA,NA,NA,NA,NA
64132,regret,8,feedback,2,0.3597296249936335,0.7,1,NA,NA,0.5,0.7,0.2,5,372,2,1,3,best,fixation,FEEDBACK_8,48324,48512,49089,NA,NA,NA,NA,NA,847.5999755859375,450.7000122070313,863.29998779296875,440.6000061035156,577
64132,regret,8,feedback,2,0.3597296249936335,0.7,1,NA,NA,0.5,0.7,0.2,5,372,2,1,3,best,fixation,FEEDBACK_8,48324,49134,49860,NA,NA,NA,NA,NA,1212.699951171875,562,1223.199951171875,607.0999755859375,726
64132,regret,8,feedback,2,0.3597296249936335,0.7,1,NA,NA,0.5,0.7,0.2,5,372,2,1,3,best,fixation,FEEDBACK_8,48324,50017,50187,NA,NA,NA,NA,NA,1161,602.29998779296875,1156.699951171875,605.4000244140625,170
64132,regret,9,choice,3,0.744123375043273,0.2,0,1,0.5668457079445943,0.5,0.7,0.2,5,372,2,1,3,worst,saccade,CHOICE_9,52293,52662,52709,861.5999755859375,643,1278,614.29998779296875,47,NA,NA,NA,NA,NA
64132,regret,9,choice,3,0.744123375043273,0.2,0,1,0.5668457079445943,0.5,0.7,0.2,5,372,2,1,3,worst,saccade,CHOICE_9,52293,53001,53041,1269.300048828125,619.20001220703125,967.9000244140624,601.79998779296875,40,NA,NA,NA,NA,NA
64132,regret,9,feedback,3,0.744123375043273,0.2,0,1,0.5668457079445943,0.5,0.7,0.2,5,372,2,1,3,worst,saccade,FEEDBACK_9,53073,53246,53292,969.9000244140624,611.9000244140625,1312.800048828125,513.0999755859375,46,NA,NA,NA,NA,NA
64132,regret,9,feedback,3,0.744123375043273,0.2,0,1,0.5668457079445943,0.5,0.7,0.2,5,372,2,1,3,worst,saccade,FEEDBACK_9,53073,53546,53565,1291.300048828125,501.2000122070313,1279.800048828125,450,19,NA,NA,NA,NA,NA
64132,regret,9,feedback,3,0.744123375043273,0.2,0,1,0.5668457079445943,0.5,0.7,0.2,5,372,2,1,3,worst,saccade,FEEDBACK_9,53073,53681,53924,1275.199951171875,453.6000061035156,996.70001220703125,681.79998779296875,243,NA,NA,NA,NA,NA
64132,regret,9,feedback,3,0.744123375043273,0.2,0,1,0.5668457079445943,0.5,0.7,0.2,5,372,2,1,3,worst,saccade,FEEDBACK_9,53073,54255,54299,1007.2000122070312,695,878.70001220703125,914.5999755859376,44,NA,NA,NA,NA,NA
64132,regret,9,feedback,3,0.744123375043273,0.2,0,1,0.5668457079445943,0.5,0.7,0.2,5,372,2,1,3,worst,saccade,FEEDBACK_9,53073,54674,54696,879.5999755859375,926.0999755859376,807.4000244140625,893.0999755859375,22,NA,NA,NA,NA,NA
64132,regret,9,regret,3,0.744123375043273,0.2,0,1,0.5668457079445943,0.5,0.7,0.2,5,372,2,1,3,worst,saccade,REGRET_9,55070,55434,55456,778.70001220703125,915,679.5999755859375,922.79998779296875,22,NA,NA,NA,NA,NA
64132,regret,9,regret,3,0.744123375043273,0.2,0,1,0.5668457079445943,0.5,0.7,0.2,5,372,2,1,3,worst,saccade,REGRET_9,55070,55937,55991,662.79998779296875,921.4000244140624,895.20001220703125,716.9000244140625,54,NA,NA,NA,NA,NA
64132,regret,9,regret,3,0.744123375043273,0.2,0,1,0.5668457079445943,0.5,0.7,0.2,5,372,2,1,3,worst,saccade,REGRET_9,55070,56269,56470,912.5999755859376,721,811.4000244140625,696.5999755859375,201,NA,NA,NA,NA,NA
64132,regret,9,fixation,3,0.744123375043273,0.2,0,1,0.5668457079445943,0.5,0.7,0.2,5,372,2,1,3,worst,saccade,FIX_9,56653,56801,56821,809.5,727.5999755859375,825.0999755859375,655.79998779296875,20,NA,NA,NA,NA,NA
64132,regret,9,choice,3,0.744123375043273,0.2,0,1,0.5668457079445943,0.5,0.7,0.2,5,372,2,1,3,worst,fixation,CHOICE_9,52293,52710,53000,NA,NA,NA,NA,NA,1278.5999755859375,614.29998779296875,1269.9000244140625,619.20001220703125,290
64132,regret,9,feedback,3,0.744123375043273,0.2,0,1,0.5668457079445943,0.5,0.7,0.2,5,372,2,1,3,worst,fixation,FEEDBACK_9,53073,53293,53545,NA,NA,NA,NA,NA,1313.199951171875,512,1291.4000244140625,502.2000122070313,252
64132,regret,9,feedback,3,0.744123375043273,0.2,0,1,0.5668457079445943,0.5,0.7,0.2,5,372,2,1,3,worst,fixation,FEEDBACK_9,53073,53566,53680,NA,NA,NA,NA,NA,1279.800048828125,448.2000122070313,1275,452.7999877929687,114
64132,regret,9,feedback,3,0.744123375043273,0.2,0,1,0.5668457079445943,0.5,0.7,0.2,5,372,2,1,3,worst,fixation,FEEDBACK_9,53073,53925,54254,NA,NA,NA,NA,NA,996.70001220703125,682.70001220703125,1007.2000122070312,694.9000244140625,329
64132,regret,9,feedback,3,0.744123375043273,0.2,0,1,0.5668457079445943,0.5,0.7,0.2,5,372,2,1,3,worst,fixation,FEEDBACK_9,53073,54300,54673,NA,NA,NA,NA,NA,878.0999755859375,915.20001220703125,881,926.9000244140624,373
64132,regret,9,regret,3,0.744123375043273,0.2,0,1,0.5668457079445943,0.5,0.7,0.2,5,372,2,1,3,worst,fixation,REGRET_9,55070,55457,55936,NA,NA,NA,NA,NA,677.70001220703125,922.79998779296875,662.79998779296875,921.29998779296875,479
64132,regret,9,regret,3,0.744123375043273,0.2,0,1,0.5668457079445943,0.5,0.7,0.2,5,372,2,1,3,worst,fixation,REGRET_9,55070,55992,56268,NA,NA,NA,NA,NA,897.5,714.70001220703125,914.29998779296875,720.70001220703125,276
64132,regret,10,choice,2,0.9279760419740342,0.7,1,NA,NA,0.5,0.7,0.2,6,372,2,1,3,best,saccade,CHOICE_10,57642,58083,58129,847.4000244140625,636.5999755859375,471.7999877929687,626.29998779296875,46,NA,NA,NA,NA,NA
64132,regret,10,choice,2,0.9279760419740342,0.7,1,NA,NA,0.5,0.7,0.2,6,372,2,1,3,best,saccade,CHOICE_10,57642,58308,58352,467.1000061035156,628,838.9000244140625,596.9000244140625,44,NA,NA,NA,NA,NA
64132,regret,10,feedback,2,0.9279760419740342,0.7,1,NA,NA,0.5,0.7,0.2,6,372,2,1,3,best,saccade,FEEDBACK_10,58607,58775,58800,825.4000244140625,603.5,848.4000244140625,495.1000061035156,25,NA,NA,NA,NA,NA
64132,regret,10,feedback,2,0.9279760419740342,0.7,1,NA,NA,0.5,0.7,0.2,6,372,2,1,3,best,saccade,FEEDBACK_10,58607,59032,59233,854.29998779296875,469.7000122070313,937.79998779296875,578.4000244140625,201,NA,NA,NA,NA,NA
64132,regret,10,feedback,2,0.9279760419740342,0.7,1,NA,NA,0.5,0.7,0.2,6,372,2,1,3,best,saccade,FEEDBACK_10,58607,59306,59346,946.4000244140624,609.5,1249.699951171875,636.29998779296875,40,NA,NA,NA,NA,NA
64132,regret,10,feedback,2,0.9279760419740342,0.7,1,NA,NA,0.5,0.7,0.2,6,372,2,1,3,best,saccade,FEEDBACK_10,58607,60384,60427,1241.5999755859375,665.5999755859375,910,705.5,43,NA,NA,NA,NA,NA
64132,regret,10,regret,2,0.9279760419740342,0.7,1,NA,NA,0.5,0.7,0.2,6,372,2,1,3,best,saccade,REGRET_10,60591,61476,61494,900.0999755859375,728.29998779296875,879.5999755859375,694.5,18,NA,NA,NA,NA,NA
64132,regret,10,fixation,2,0.9279760419740342,0.7,1,NA,NA,0.5,0.7,0.2,6,372,2,1,3,best,saccade,FIX_10,61587,62285,62311,873.4000244140625,699.70001220703125,962.0999755859376,661.4000244140625,26,NA,NA,NA,NA,NA
64132,regret,10,choice,2,0.9279760419740342,0.7,1,NA,NA,0.5,0.7,0.2,6,372,2,1,3,best,fixation,CHOICE_10,57642,58130,58307,NA,NA,NA,NA,NA,469.6000061035156,626.29998779296875,467,627.70001220703125,177
64132,regret,10,feedback,2,0.9279760419740342,0.7,1,NA,NA,0.5,0.7,0.2,6,372,2,1,3,best,fixation,FEEDBACK_10,58607,58801,59031,NA,NA,NA,NA,NA,849.0999755859375,490.2999877929687,852.9000244140625,468,230
64132,regret,10,feedback,2,0.9279760419740342,0.7,1,NA,NA,0.5,0.7,0.2,6,372,2,1,3,best,fixation,FEEDBACK_10,58607,59234,59305,NA,NA,NA,NA,NA,937.4000244140624,583.4000244140625,946.20001220703125,609.0999755859375,71
64132,regret,10,feedback,2,0.9279760419740342,0.7,1,NA,NA,0.5,0.7,0.2,6,372,2,1,3,best,fixation,FEEDBACK_10,58607,59347,60383,NA,NA,NA,NA,NA,1251.5999755859375,636.0999755859375,1241.800048828125,665.5999755859375,1036
64132,regret,11,choice,3,0.4617061670287512,0.2,0,2,4.142869999981485,0.5,0.7,0.2,6,372,2,1,3,worst,saccade,CHOICE_11,62587,62824,62862,998,660.70001220703125,1239.300048828125,619.29998779296875,38,NA,NA,NA,NA,NA
64132,regret,11,feedback,3,0.4617061670287512,0.2,0,2,4.142869999981485,0.5,0.7,0.2,6,372,2,1,3,worst,saccade,FEEDBACK_11,63077,63239,63274,1240.199951171875,626,1284.800048828125,470.2000122070313,35,NA,NA,NA,NA,NA
64132,regret,11,feedback,3,0.4617061670287512,0.2,0,2,4.142869999981485,0.5,0.7,0.2,6,372,2,1,3,worst,saccade,FEEDBACK_11,63077,63635,63805,1282.0999755859375,482.2999877929687,1167.800048828125,535.70001220703125,170,NA,NA,NA,NA,NA
64132,regret,11,regret,3,0.4617061670287512,0.2,0,2,4.142869999981485,0.5,0.7,0.2,6,372,2,1,3,worst,saccade,REGRET_11,65071,65354,65377,773.5999755859375,813.5999755859375,704.70001220703125,919.20001220703125,23,NA,NA,NA,NA,NA
64132,regret,11,regret,3,0.4617061670287512,0.2,0,2,4.142869999981485,0.5,0.7,0.2,6,372,2,1,3,worst,saccade,REGRET_11,65071,65600,65725,705.5,942.9000244140624,854.5999755859375,879.79998779296875,125,NA,NA,NA,NA,NA
64132,regret,11,regret,3,0.4617061670287512,0.2,0,2,4.142869999981485,0.5,0.7,0.2,6,372,2,1,3,worst,saccade,REGRET_11,65071,66037,66060,837.0999755859375,918.29998779296875,891.0999755859375,848.5999755859375,23,NA,NA,NA,NA,NA
64132,regret,11,regret,3,0.4617061670287512,0.2,0,2,4.142869999981485,0.5,0.7,0.2,6,372,2,1,3,worst,saccade,REGRET_11,65071,66469,66491,886.5,831.70001220703125,968.5999755859376,811.20001220703125,22,NA,NA,NA,NA,NA
64132,regret,11,regret,3,0.4617061670287512,0.2,0,2,4.142869999981485,0.5,0.7,0.2,6,372,2,1,3,worst,saccade,REGRET_11,65071,66959,67055,995.0999755859376,819.5999755859375,997.79998779296875,817.5,96,NA,NA,NA,NA,NA
64132,regret,11,regret,3,0.4617061670287512,0.2,0,2,4.142869999981485,0.5,0.7,0.2,6,372,2,1,3,worst,saccade,REGRET_11,65071,67510,67548,1134.5,639.4000244140625,1036.800048828125,833.0999755859375,38,NA,NA,NA,NA,NA
64132,regret,11,regret,3,0.4617061670287512,0.2,0,2,4.142869999981485,0.5,0.7,0.2,6,372,2,1,3,worst,saccade,REGRET_11,65071,67864,68062,1049.4000244140625,870.4000244140625,989,899.5999755859375,198,NA,NA,NA,NA,NA
64132,regret,11,regret,3,0.4617061670287512,0.2,0,2,4.142869999981485,0.5,0.7,0.2,6,372,2,1,3,worst,saccade,REGRET_11,65071,68169,68193,984.5,923.4000244140624,895.4000244140625,915.9000244140624,24,NA,NA,NA,NA,NA
64132,regret,11,regret,3,0.4617061670287512,0.2,0,2,4.142869999981485,0.5,0.7,0.2,6,372,2,1,3,worst,saccade,REGRET_11,65071,68407,68457,870.0999755859375,920.29998779296875,1219.4000244140625,649.70001220703125,50,NA,NA,NA,NA,NA
64132,regret,11,regret,3,0.4617061670287512,0.2,0,2,4.142869999981485,0.5,0.7,0.2,6,372,2,1,3,worst,saccade,REGRET_11,65071,68822,68873,1206.699951171875,630.70001220703125,743.70001220703125,931.70001220703125,51,NA,NA,NA,NA,NA
64132,regret,11,regret,3,0.4617061670287512,0.2,0,2,4.142869999981485,0.5,0.7,0.2,6,372,2,1,3,worst,saccade,REGRET_11,65071,69137,69157,758.0999755859375,919.0999755859376,837.70001220703125,897.70001220703125,20,NA,NA,NA,NA,NA
64132,regret,11,regret,3,0.4617061670287512,0.2,0,2,4.142869999981485,0.5,0.7,0.2,6,372,2,1,3,worst,saccade,REGRET_11,65071,69420,69456,851.0999755859375,892.20001220703125,951.70001220703125,750.79998779296875,36,NA,NA,NA,NA,NA
64132,regret,11,regret,3,0.4617061670287512,0.2,0,2,4.142869999981485,0.5,0.7,0.2,6,372,2,1,3,worst,saccade,REGRET_11,65071,69510,69791,1013.2999877929688,623.5999755859375,935.70001220703125,698.5999755859375,281,NA,NA,NA,NA,NA
64132,regret,11,fixation,3,0.4617061670287512,0.2,0,2,4.142869999981485,0.5,0.7,0.2,6,372,2,1,3,worst,saccade,FIX_11,70221,70526,70549,793,751.4000244140625,829.70001220703125,673,23,NA,NA,NA,NA,NA
64132,regret,11,feedback,3,0.4617061670287512,0.2,0,2,4.142869999981485,0.5,0.7,0.2,6,372,2,1,3,worst,fixation,FEEDBACK_11,63077,63275,63634,NA,NA,NA,NA,NA,1284.9000244140625,468.2000122070313,1282.300048828125,480.2999877929687,359
64132,regret,11,feedback,3,0.4617061670287512,0.2,0,2,4.142869999981485,0.5,0.7,0.2,6,372,2,1,3,worst,fixation,FEEDBACK_11,63077,63806,65065,NA,NA,NA,NA,NA,1167.5999755859375,535.70001220703125,1180.4000244140625,586.79998779296875,1259
64132,regret,11,regret,3,0.4617061670287512,0.2,0,2,4.142869999981485,0.5,0.7,0.2,6,372,2,1,3,worst,fixation,REGRET_11,65071,65121,65353,NA,NA,NA,NA,NA,779.79998779296875,806.4000244140625,773.5,812.9000244140625,232
64132,regret,11,regret,3,0.4617061670287512,0.2,0,2,4.142869999981485,0.5,0.7,0.2,6,372,2,1,3,worst,fixation,REGRET_11,65071,65378,65599,NA,NA,NA,NA,NA,703.9000244140625,920.9000244140624,704.5,941.5999755859376,221
64132,regret,11,regret,3,0.4617061670287512,0.2,0,2,4.142869999981485,0.5,0.7,0.2,6,372,2,1,3,worst,fixation,REGRET_11,65071,65726,66036,NA,NA,NA,NA,NA,854,884.5,837,919.0999755859376,310
64132,regret,11,regret,3,0.4617061670287512,0.2,0,2,4.142869999981485,0.5,0.7,0.2,6,372,2,1,3,worst,fixation,REGRET_11,65071,66061,66468,NA,NA,NA,NA,NA,891.5999755859375,844.20001220703125,885.79998779296875,832.0999755859375,407
64132,regret,11,regret,3,0.4617061670287512,0.2,0,2,4.142869999981485,0.5,0.7,0.2,6,372,2,1,3,worst,fixation,REGRET_11,65071,66492,66958,NA,NA,NA,NA,NA,971.5999755859376,811.20001220703125,995.20001220703125,818.5,466
64132,regret,11,regret,3,0.4617061670287512,0.2,0,2,4.142869999981485,0.5,0.7,0.2,6,372,2,1,3,worst,fixation,REGRET_11,65071,67056,67509,NA,NA,NA,NA,NA,1132.0999755859375,628.70001220703125,1134.5999755859375,638.79998779296875,453
64132,regret,11,regret,3,0.4617061670287512,0.2,0,2,4.142869999981485,0.5,0.7,0.2,6,372,2,1,3,worst,fixation,REGRET_11,65071,67549,67863,NA,NA,NA,NA,NA,1036.199951171875,835.5,1048.5,869.5999755859375,314
64132,regret,11,regret,3,0.4617061670287512,0.2,0,2,4.142869999981485,0.5,0.7,0.2,6,372,2,1,3,worst,fixation,REGRET_11,65071,68063,68168,NA,NA,NA,NA,NA,989.0999755859376,901,985.70001220703125,923.29998779296875,105
64132,regret,11,regret,3,0.4617061670287512,0.2,0,2,4.142869999981485,0.5,0.7,0.2,6,372,2,1,3,worst,fixation,REGRET_11,65071,68194,68406,NA,NA,NA,NA,NA,891.5999755859375,915.79998779296875,870.29998779296875,920.5,212
64132,regret,11,regret,3,0.4617061670287512,0.2,0,2,4.142869999981485,0.5,0.7,0.2,6,372,2,1,3,worst,fixation,REGRET_11,65071,68458,68821,NA,NA,NA,NA,NA,1221.199951171875,645.70001220703125,1206.199951171875,631,363
64132,regret,11,regret,3,0.4617061670287512,0.2,0,2,4.142869999981485,0.5,0.7,0.2,6,372,2,1,3,worst,fixation,REGRET_11,65071,68874,69136,NA,NA,NA,NA,NA,743.5999755859375,932.5999755859376,757.70001220703125,919.4000244140624,262
64132,regret,11,regret,3,0.4617061670287512,0.2,0,2,4.142869999981485,0.5,0.7,0.2,6,372,2,1,3,worst,fixation,REGRET_11,65071,69158,69419,NA,NA,NA,NA,NA,839.70001220703125,895.9000244140625,850.20001220703125,893.29998779296875,261
64132,regret,11,regret,3,0.4617061670287512,0.2,0,2,4.142869999981485,0.5,0.7,0.2,6,372,2,1,3,worst,fixation,REGRET_11,65071,69457,69509,NA,NA,NA,NA,NA,954.5,747.20001220703125,1012.7000122070312,625.9000244140625,52
64132,regret,11,regret,3,0.4617061670287512,0.2,0,2,4.142869999981485,0.5,0.7,0.2,6,372,2,1,3,worst,fixation,REGRET_11,65071,69792,70142,NA,NA,NA,NA,NA,935.9000244140624,699,933.29998779296875,765.4000244140625,350
64132,regret,11,fixation,3,0.4617061670287512,0.2,0,2,4.142869999981485,0.5,0.7,0.2,6,372,2,1,3,worst,fixation,FIX_11,70221,70374,70525,NA,NA,NA,NA,NA,788.29998779296875,737.79998779296875,793,751.79998779296875,151
64132,regret,12,choice,3,0.7696402499568649,0.2,0,2,0.7060800840263255,0.5,0.7,0.2,6,372,2,1,3,worst,saccade,CHOICE_12,71220,71325,71330,854.29998779296875,674.0999755859375,850,665.70001220703125,5,NA,NA,NA,NA,NA
64132,regret,12,choice,3,0.7696402499568649,0.2,0,2,0.7060800840263255,0.5,0.7,0.2,6,372,2,1,3,worst,saccade,CHOICE_12,71220,71551,71601,849.20001220703125,658.70001220703125,1301.5,633.79998779296875,50,NA,NA,NA,NA,NA
64132,regret,12,feedback,3,0.7696402499568649,0.2,0,2,0.7060800840263255,0.5,0.7,0.2,6,372,2,1,3,worst,saccade,FEEDBACK_12,72024,72270,72294,1270.300048828125,638.9000244140625,1284.699951171875,546.70001220703125,24,NA,NA,NA,NA,NA
64132,regret,12,feedback,3,0.7696402499568649,0.2,0,2,0.7060800840263255,0.5,0.7,0.2,6,372,2,1,3,worst,saccade,FEEDBACK_12,72024,73059,73262,1291.5,526.4000244140625,788.70001220703125,674.9000244140625,203,NA,NA,NA,NA,NA
64132,regret,12,feedback,3,0.7696402499568649,0.2,0,2,0.7060800840263255,0.5,0.7,0.2,6,372,2,1,3,worst,saccade,FEEDBACK_12,72024,73746,73772,796.5,729.5999755859375,735.0999755859375,863.79998779296875,26,NA,NA,NA,NA,NA
64132,regret,12,regret,3,0.7696402499568649,0.2,0,2,0.7060800840263255,0.5,0.7,0.2,6,372,2,1,3,worst,saccade,REGRET_12,74020,74231,74249,732.5,942,673.79998779296875,940.4000244140624,18,NA,NA,NA,NA,NA
64132,regret,12,regret,3,0.7696402499568649,0.2,0,2,0.7060800840263255,0.5,0.7,0.2,6,372,2,1,3,worst,saccade,REGRET_12,74020,74454,74485,656.79998779296875,939.29998779296875,828.70001220703125,919,31,NA,NA,NA,NA,NA
64132,regret,12,regret,3,0.7696402499568649,0.2,0,2,0.7060800840263255,0.5,0.7,0.2,6,372,2,1,3,worst,saccade,REGRET_12,74020,74949,74969,818.0999755859375,923.9000244140624,842.79998779296875,876,20,NA,NA,NA,NA,NA
64132,regret,12,regret,3,0.7696402499568649,0.2,0,2,0.7060800840263255,0.5,0.7,0.2,6,372,2,1,3,worst,saccade,REGRET_12,74020,75055,75356,876.0999755859375,732.29998779296875,809.0999755859375,717.29998779296875,301,NA,NA,NA,NA,NA
64132,regret,12,fixation,3,0.7696402499568649,0.2,0,2,0.7060800840263255,0.5,0.7,0.2,6,372,2,1,3,worst,saccade,FIX_12,75727,76046,76067,819.70001220703125,782.70001220703125,800.4000244140625,729.5,21,NA,NA,NA,NA,NA
64132,regret,12,choice,3,0.7696402499568649,0.2,0,2,0.7060800840263255,0.5,0.7,0.2,6,372,2,1,3,worst,fixation,CHOICE_12,71220,71331,71550,NA,NA,NA,NA,NA,849.79998779296875,664,849.20001220703125,658.70001220703125,219
64132,regret,12,feedback,3,0.7696402499568649,0.2,0,2,0.7060800840263255,0.5,0.7,0.2,6,372,2,1,3,worst,fixation,FEEDBACK_12,72024,72295,73058,NA,NA,NA,NA,NA,1284.5999755859375,543.4000244140625,1291.9000244140625,525.20001220703125,763
64132,regret,12,feedback,3,0.7696402499568649,0.2,0,2,0.7060800840263255,0.5,0.7,0.2,6,372,2,1,3,worst,fixation,FEEDBACK_12,72024,73263,73745,NA,NA,NA,NA,NA,788.79998779296875,677.0999755859375,796.5999755859375,728.79998779296875,482
64132,regret,12,regret,3,0.7696402499568649,0.2,0,2,0.7060800840263255,0.5,0.7,0.2,6,372,2,1,3,worst,fixation,REGRET_12,74020,74250,74453,NA,NA,NA,NA,NA,671.5,940.0999755859376,656.70001220703125,939.29998779296875,203
64132,regret,12,regret,3,0.7696402499568649,0.2,0,2,0.7060800840263255,0.5,0.7,0.2,6,372,2,1,3,worst,fixation,REGRET_12,74020,74486,74948,NA,NA,NA,NA,NA,830.70001220703125,918.9000244140624,817.5999755859375,925.20001220703125,462
64132,regret,12,regret,3,0.7696402499568649,0.2,0,2,0.7060800840263255,0.5,0.7,0.2,6,372,2,1,3,worst,fixation,REGRET_12,74020,74970,75054,NA,NA,NA,NA,NA,843,873.29998779296875,877.9000244140625,734,84
64132,regret,13,choice,1,0.397659208974801,0.5,0,3,0.6267741250339895,0.5,0.7,0.2,6,372,2,1,3,medium,saccade,CHOICE_13,76721,76902,76944,802.4000244140625,723,520.9000244140625,659.9000244140625,42,NA,NA,NA,NA,NA
64132,regret,13,feedback,1,0.397659208974801,0.5,0,3,0.6267741250339895,0.5,0.7,0.2,6,372,2,1,3,medium,saccade,FEEDBACK_13,77157,77313,77345,520.70001220703125,668.5999755859375,493.7000122070313,470.5,32,NA,NA,NA,NA,NA
64132,regret,13,feedback,1,0.397659208974801,0.5,0,3,0.6267741250339895,0.5,0.7,0.2,6,372,2,1,3,medium,saccade,FEEDBACK_13,77157,77657,77804,463,449.2999877929687,534.20001220703125,626.5,147,NA,NA,NA,NA,NA
64132,regret,13,feedback,1,0.397659208974801,0.5,0,3,0.6267741250339895,0.5,0.7,0.2,6,372,2,1,3,medium,saccade,FEEDBACK_13,77157,77984,78028,540.79998779296875,648.5999755859375,879.79998779296875,652.5,44,NA,NA,NA,NA,NA
64132,regret,13,feedback,1,0.397659208974801,0.5,0,3,0.6267741250339895,0.5,0.7,0.2,6,372,2,1,3,medium,saccade,FEEDBACK_13,77157,78583,78623,883.29998779296875,670.5,1006.9000244140624,805.29998779296875,40,NA,NA,NA,NA,NA
64132,regret,13,regret,1,0.397659208974801,0.5,0,3,0.6267741250339895,0.5,0.7,0.2,6,372,2,1,3,medium,saccade,REGRET_13,79156,79343,79376,1004,840.4000244140625,826.9000244140625,866.9000244140625,33,NA,NA,NA,NA,NA
64132,regret,13,regret,1,0.397659208974801,0.5,0,3,0.6267741250339895,0.5,0.7,0.2,6,372,2,1,3,medium,saccade,REGRET_13,79156,79534,79565,827.79998779296875,871.4000244140625,1010.7999877929688,906.79998779296875,31,NA,NA,NA,NA,NA
64132,regret,13,regret,1,0.397659208974801,0.5,0,3,0.6267741250339895,0.5,0.7,0.2,6,372,2,1,3,medium,saccade,REGRET_13,79156,79993,80033,1007.7000122070312,899.4000244140625,950.9000244140624,724.9000244140625,40,NA,NA,NA,NA,NA
64132,regret,13,fixation,1,0.397659208974801,0.5,0,3,0.6267741250339895,0.5,0.7,0.2,6,372,2,1,3,medium,saccade,FIX_13,80788,81207,81225,844.0999755859375,693.70001220703125,885.5,669,18,NA,NA,NA,NA,NA
64132,regret,13,feedback,1,0.397659208974801,0.5,0,3,0.6267741250339895,0.5,0.7,0.2,6,372,2,1,3,medium,fixation,FEEDBACK_13,77157,77346,77656,NA,NA,NA,NA,NA,492.8999938964844,465.8999938964844,462.5,448,310
64132,regret,13,feedback,1,0.397659208974801,0.5,0,3,0.6267741250339895,0.5,0.7,0.2,6,372,2,1,3,medium,fixation,FEEDBACK_13,77157,77805,77983,NA,NA,NA,NA,NA,533.9000244140625,629.0999755859375,541.0999755859375,648.0999755859375,178
64132,regret,13,feedback,1,0.397659208974801,0.5,0,3,0.6267741250339895,0.5,0.7,0.2,6,372,2,1,3,medium,fixation,FEEDBACK_13,77157,78029,78582,NA,NA,NA,NA,NA,881.4000244140625,652.5999755859375,883.0999755859375,669.5,553
64132,regret,13,regret,1,0.397659208974801,0.5,0,3,0.6267741250339895,0.5,0.7,0.2,6,372,2,1,3,medium,fixation,REGRET_13,79156,79377,79533,NA,NA,NA,NA,NA,825.4000244140625,867.70001220703125,827.29998779296875,871.79998779296875,156
64132,regret,13,regret,1,0.397659208974801,0.5,0,3,0.6267741250339895,0.5,0.7,0.2,6,372,2,1,3,medium,fixation,REGRET_13,79156,79566,79992,NA,NA,NA,NA,NA,1013.7000122070312,906.9000244140624,1008.5,899.9000244140625,426
64132,regret,14,choice,2,0.4011587499990128,0.7,0,3,1.7893749580252916,0.5,0.7,0.2,6,372,2,1,3,best,saccade,CHOICE_14,81788,81993,82008,887,706.0999755859375,870.4000244140625,679.20001220703125,15,NA,NA,NA,NA,NA
64132,regret,14,feedback,2,0.4011587499990128,0.7,0,3,1.7893749580252916,0.5,0.7,0.2,6,372,2,1,3,best,saccade,FEEDBACK_14,82232,82382,82412,860,682.29998779296875,839.5999755859375,518,30,NA,NA,NA,NA,NA
64132,regret,14,feedback,2,0.4011587499990128,0.7,0,3,1.7893749580252916,0.5,0.7,0.2,6,372,2,1,3,best,saccade,FEEDBACK_14,82232,82667,82933,839,495.5,1341.5,554.20001220703125,266,NA,NA,NA,NA,NA
64132,regret,14,feedback,2,0.4011587499990128,0.7,0,3,1.7893749580252916,0.5,0.7,0.2,6,372,2,1,3,best,saccade,FEEDBACK_14,82232,83160,83507,855.4000244140625,752.29998779296875,988.70001220703125,719.70001220703125,347,NA,NA,NA,NA,NA
64132,regret,14,regret,2,0.4011587499990128,0.7,0,3,1.7893749580252916,0.5,0.7,0.2,6,372,2,1,3,best,saccade,REGRET_14,84234,84454,84479,924.5999755859376,1075.5999755859375,951.5999755859376,970.4000244140624,25,NA,NA,NA,NA,NA
64132,regret,14,regret,2,0.4011587499990128,0.7,0,3,1.7893749580252916,0.5,0.7,0.2,6,372,2,1,3,best,saccade,REGRET_14,84234,84698,84718,961.0999755859376,948.9000244140624,878.70001220703125,950.0999755859376,20,NA,NA,NA,NA,NA
64132,regret,14,regret,2,0.4011587499990128,0.7,0,3,1.7893749580252916,0.5,0.7,0.2,6,372,2,1,3,best,saccade,REGRET_14,84234,85050,85081,852.29998779296875,950.4000244140624,1034.199951171875,932.29998779296875,31,NA,NA,NA,NA,NA
64132,regret,14,regret,2,0.4011587499990128,0.7,0,3,1.7893749580252916,0.5,0.7,0.2,6,372,2,1,3,best,saccade,REGRET_14,84234,85630,85654,1027,926.4000244140624,992.4000244140624,861,24,NA,NA,NA,NA,NA
64132,regret,14,regret,2,0.4011587499990128,0.7,0,3,1.7893749580252916,0.5,0.7,0.2,6,372,2,1,3,best,saccade,REGRET_14,84234,86299,86319,972.4000244140624,859.29998779296875,997.5,833.5999755859375,20,NA,NA,NA,NA,NA
64132,regret,14,regret,2,0.4011587499990128,0.7,0,3,1.7893749580252916,0.5,0.7,0.2,6,372,2,1,3,best,saccade,REGRET_14,84234,86351,86603,980,811.9000244140625,813.20001220703125,701,252,NA,NA,NA,NA,NA
64132,regret,14,fixation,2,0.4011587499990128,0.7,0,3,1.7893749580252916,0.5,0.7,0.2,6,372,2,1,3,best,saccade,FIX_14,87038,87086,87110,828.79998779296875,773.0999755859375,882.5999755859375,702,24,NA,NA,NA,NA,NA
64132,regret,14,feedback,2,0.4011587499990128,0.7,0,3,1.7893749580252916,0.5,0.7,0.2,6,372,2,1,3,best,fixation,FEEDBACK_14,82232,82413,82666,NA,NA,NA,NA,NA,840.5,512.70001220703125,839.0999755859375,493.7999877929687,253
64132,regret,14,feedback,2,0.4011587499990128,0.7,0,3,1.7893749580252916,0.5,0.7,0.2,6,372,2,1,3,best,fixation,FEEDBACK_14,82232,82934,83159,NA,NA,NA,NA,NA,854.29998779296875,690.4000244140625,855.29998779296875,751.79998779296875,225
64132,regret,14,feedback,2,0.4011587499990128,0.7,0,3,1.7893749580252916,0.5,0.7,0.2,6,372,2,1,3,best,fixation,FEEDBACK_14,82232,83508,83924,NA,NA,NA,NA,NA,988.4000244140624,722.4000244140625,978.29998779296875,762.70001220703125,416
64132,regret,14,regret,2,0.4011587499990128,0.7,0,3,1.7893749580252916,0.5,0.7,0.2,6,372,2,1,3,best,fixation,REGRET_14,84234,84386,84453,NA,NA,NA,NA,NA,923,1065.5999755859375,924.5,1076.0999755859375,67
64132,regret,14,regret,2,0.4011587499990128,0.7,0,3,1.7893749580252916,0.5,0.7,0.2,6,372,2,1,3,best,fixation,REGRET_14,84234,84480,84697,NA,NA,NA,NA,NA,952.9000244140624,966.5999755859376,962.4000244140624,949.5999755859376,217
64132,regret,14,regret,2,0.4011587499990128,0.7,0,3,1.7893749580252916,0.5,0.7,0.2,6,372,2,1,3,best,fixation,REGRET_14,84234,84719,85049,NA,NA,NA,NA,NA,876.29998779296875,950.4000244140624,852.29998779296875,950.4000244140624,330
64132,regret,14,regret,2,0.4011587499990128,0.7,0,3,1.7893749580252916,0.5,0.7,0.2,6,372,2,1,3,best,fixation,REGRET_14,84234,85082,85629,NA,NA,NA,NA,NA,1037.300048828125,930.70001220703125,1028,927.5,547
64132,regret,14,regret,2,0.4011587499990128,0.7,0,3,1.7893749580252916,0.5,0.7,0.2,6,372,2,1,3,best,fixation,REGRET_14,84234,85655,86298,NA,NA,NA,NA,NA,990.70001220703125,858.29998779296875,970.29998779296875,860.0999755859375,643
64132,regret,14,regret,2,0.4011587499990128,0.7,0,3,1.7893749580252916,0.5,0.7,0.2,6,372,2,1,3,best,fixation,REGRET_14,84234,86320,86350,NA,NA,NA,NA,NA,999.0999755859376,831.9000244140625,982.5,810.20001220703125,30
64132,regret,15,choice,3,0.4012397089973092,0.2,0,3,2.215900667011738,0.5,0.7,0.2,6,372,2,1,3,worst,saccade,CHOICE_15,88038,88235,88280,897.70001220703125,707.0999755859375,1254.199951171875,638.0999755859375,45,NA,NA,NA,NA,NA
64132,regret,15,feedback,3,0.4012397089973092,0.2,0,3,2.215900667011738,0.5,0.7,0.2,6,372,2,1,3,worst,saccade,FEEDBACK_15,88475,88626,88652,1248.199951171875,632.5999755859375,1261.9000244140625,515,26,NA,NA,NA,NA,NA
64132,regret,15,feedback,3,0.4012397089973092,0.2,0,3,2.215900667011738,0.5,0.7,0.2,6,372,2,1,3,worst,saccade,FEEDBACK_15,88475,88966,89291,1269.5999755859375,492.7999877929687,764,873.20001220703125,325,NA,NA,NA,NA,NA
64132,regret,15,feedback,3,0.4012397089973092,0.2,0,3,2.215900667011738,0.5,0.7,0.2,6,372,2,1,3,worst,saccade,FEEDBACK_15,88475,89656,89694,774,912.70001220703125,998.29998779296875,777.29998779296875,38,NA,NA,NA,NA,NA
64132,regret,15,regret,3,0.4012397089973092,0.2,0,3,2.215900667011738,0.5,0.7,0.2,6,372,2,1,3,worst,saccade,REGRET_15,90471,90782,90795,903.5999755859376,880.0999755859375,876.9000244140625,862.70001220703125,13,NA,NA,NA,NA,NA
64132,regret,15,regret,3,0.4012397089973092,0.2,0,3,2.215900667011738,0.5,0.7,0.2,6,372,2,1,3,worst,saccade,REGRET_15,90471,90995,91017,869.4000244140625,846.79998779296875,959.20001220703125,811,22,NA,NA,NA,NA,NA
64132,regret,15,regret,3,0.4012397089973092,0.2,0,3,2.215900667011738,0.5,0.7,0.2,6,372,2,1,3,worst,saccade,REGRET_15,90471,91325,91346,962.4000244140624,821.29998779296875,1019.2999877929688,893.9000244140625,21,NA,NA,NA,NA,NA
64132,regret,15,regret,3,0.4012397089973092,0.2,0,3,2.215900667011738,0.5,0.7,0.2,6,372,2,1,3,worst,saccade,REGRET_15,90471,91809,91856,1023.7999877929688,899.9000244140625,1258.199951171875,621.9000244140625,47,NA,NA,NA,NA,NA
64132,regret,15,regret,3,0.4012397089973092,0.2,0,3,2.215900667011738,0.5,0.7,0.2,6,372,2,1,3,worst,saccade,REGRET_15,90471,92251,92302,1258.5,614.5,915,858.29998779296875,51,NA,NA,NA,NA,NA
64132,regret,15,regret,3,0.4012397089973092,0.2,0,3,2.215900667011738,0.5,0.7,0.2,6,372,2,1,3,worst,saccade,REGRET_15,90471,92537,92559,916.70001220703125,878.79998779296875,1012.4000244140624,898.70001220703125,22,NA,NA,NA,NA,NA
64132,regret,15,regret,3,0.4012397089973092,0.2,0,3,2.215900667011738,0.5,0.7,0.2,6,372,2,1,3,worst,saccade,REGRET_15,90471,92892,92917,1019.4000244140624,918.9000244140624,1083.0999755859375,830,25,NA,NA,NA,NA,NA
64132,regret,15,regret,3,0.4012397089973092,0.2,0,3,2.215900667011738,0.5,0.7,0.2,6,372,2,1,3,worst,saccade,REGRET_15,90471,93352,93570,1119.5,727.5999755859375,791.4000244140625,709.20001220703125,218,NA,NA,NA,NA,NA
64132,regret,15,fixation,3,0.4012397089973092,0.2,0,3,2.215900667011738,0.5,0.7,0.2,6,372,2,1,3,worst,saccade,FIX_15,93705,94002,94028,794.79998779296875,781.79998779296875,836.79998779296875,677.5,26,NA,NA,NA,NA,NA
64132,regret,15,feedback,3,0.4012397089973092,0.2,0,3,2.215900667011738,0.5,0.7,0.2,6,372,2,1,3,worst,fixation,FEEDBACK_15,88475,88653,88965,NA,NA,NA,NA,NA,1262.800048828125,511.2000122070313,1269.699951171875,491.7000122070313,312
64132,regret,15,feedback,3,0.4012397089973092,0.2,0,3,2.215900667011738,0.5,0.7,0.2,6,372,2,1,3,worst,fixation,FEEDBACK_15,88475,89292,89655,NA,NA,NA,NA,NA,763.9000244140625,876,773.79998779296875,912.4000244140624,363
64132,regret,15,feedback,3,0.4012397089973092,0.2,0,3,2.215900667011738,0.5,0.7,0.2,6,372,2,1,3,worst,fixation,FEEDBACK_15,88475,89695,90452,NA,NA,NA,NA,NA,1001.0999755859376,775.4000244140625,1013.4000244140624,777.0999755859375,757
64132,regret,15,regret,3,0.4012397089973092,0.2,0,3,2.215900667011738,0.5,0.7,0.2,6,372,2,1,3,worst,fixation,REGRET_15,90471,90483,90781,NA,NA,NA,NA,NA,921.4000244140624,870.5999755859375,904.0999755859376,881,298
64132,regret,15,regret,3,0.4012397089973092,0.2,0,3,2.215900667011738,0.5,0.7,0.2,6,372,2,1,3,worst,fixation,REGRET_15,90471,90796,90994,NA,NA,NA,NA,NA,875.9000244140625,861.9000244140625,868.9000244140625,846.79998779296875,198
64132,regret,15,regret,3,0.4012397089973092,0.2,0,3,2.215900667011738,0.5,0.7,0.2,6,372,2,1,3,worst,fixation,REGRET_15,90471,91018,91324,NA,NA,NA,NA,NA,961.70001220703125,810.70001220703125,962.4000244140624,821,306
64132,regret,15,regret,3,0.4012397089973092,0.2,0,3,2.215900667011738,0.5,0.7,0.2,6,372,2,1,3,worst,fixation,REGRET_15,90471,91347,91808,NA,NA,NA,NA,NA,1019.5999755859376,896.70001220703125,1023.9000244140624,899.79998779296875,461
64132,regret,15,regret,3,0.4012397089973092,0.2,0,3,2.215900667011738,0.5,0.7,0.2,6,372,2,1,3,worst,fixation,REGRET_15,90471,91857,92250,NA,NA,NA,NA,NA,1258.5999755859375,617.70001220703125,1258.300048828125,613.9000244140625,393
64132,regret,15,regret,3,0.4012397089973092,0.2,0,3,2.215900667011738,0.5,0.7,0.2,6,372,2,1,3,worst,fixation,REGRET_15,90471,92303,92536,NA,NA,NA,NA,NA,912.0999755859376,859,916.79998779296875,878.70001220703125,233
64132,regret,15,regret,3,0.4012397089973092,0.2,0,3,2.215900667011738,0.5,0.7,0.2,6,372,2,1,3,worst,fixation,REGRET_15,90471,92560,92891,NA,NA,NA,NA,NA,1014,899.70001220703125,1018.7999877929688,919.79998779296875,331
64132,regret,15,regret,3,0.4012397089973092,0.2,0,3,2.215900667011738,0.5,0.7,0.2,6,372,2,1,3,worst,fixation,REGRET_15,90471,92918,93351,NA,NA,NA,NA,NA,1084.699951171875,825.70001220703125,1120.5999755859375,726.9000244140625,433
64132,regret,16,choice,3,0.3680949580157176,0.2,0,2,1.7350697089568712,0.5,0.7,0.2,6,372,2,1,3,worst,saccade,CHOICE_16,94705,94921,94964,847.9000244140625,671.79998779296875,1206.5,622.20001220703125,43,NA,NA,NA,NA,NA
64132,regret,16,feedback,3,0.3680949580157176,0.2,0,2,1.7350697089568712,0.5,0.7,0.2,6,372,2,1,3,worst,saccade,FEEDBACK_16,95110,95262,95296,1189.199951171875,616.79998779296875,1291.5,476.5,34,NA,NA,NA,NA,NA
64132,regret,16,feedback,3,0.3680949580157176,0.2,0,2,1.7350697089568712,0.5,0.7,0.2,6,372,2,1,3,worst,saccade,FEEDBACK_16,95110,95547,95867,1278.199951171875,466.6000061035156,794.0999755859375,830.5,320,NA,NA,NA,NA,NA
64132,regret,16,feedback,3,0.3680949580157176,0.2,0,2,1.7350697089568712,0.5,0.7,0.2,6,372,2,1,3,worst,saccade,FEEDBACK_16,95110,96101,96477,798.5999755859375,874.79998779296875,737,747.70001220703125,376,NA,NA,NA,NA,NA
64132,regret,16,regret,3,0.3680949580157176,0.2,0,2,1.7350697089568712,0.5,0.7,0.2,6,372,2,1,3,worst,saccade,REGRET_16,97104,97335,97357,749.20001220703125,822.9000244140625,674.5999755859375,905.29998779296875,22,NA,NA,NA,NA,NA
64132,regret,16,regret,3,0.3680949580157176,0.2,0,2,1.7350697089568712,0.5,0.7,0.2,6,372,2,1,3,worst,saccade,REGRET_16,97104,97662,97685,665.70001220703125,904.20001220703125,755.5,886.29998779296875,23,NA,NA,NA,NA,NA
64132,regret,16,regret,3,0.3680949580157176,0.2,0,2,1.7350697089568712,0.5,0.7,0.2,6,372,2,1,3,worst,saccade,REGRET_16,97104,97981,97997,777.0999755859375,889.29998779296875,820.20001220703125,898.5,16,NA,NA,NA,NA,NA
64132,regret,16,regret,3,0.3680949580157176,0.2,0,2,1.7350697089568712,0.5,0.7,0.2,6,372,2,1,3,worst,saccade,REGRET_16,97104,98303,98331,827.9000244140625,909.29998779296875,899,815.5,28,NA,NA,NA,NA,NA
64132,regret,16,regret,3,0.3680949580157176,0.2,0,2,1.7350697089568712,0.5,0.7,0.2,6,372,2,1,3,worst,saccade,REGRET_16,97104,98686,98727,915.70001220703125,783.4000244140625,1036.5999755859375,661.4000244140625,41,NA,NA,NA,NA,NA
64132,regret,16,regret,3,0.3680949580157176,0.2,0,2,1.7350697089568712,0.5,0.7,0.2,6,372,2,1,3,worst,saccade,REGRET_16,97104,99131,99482,1065.199951171875,671.5999755859375,869.0999755859375,779.20001220703125,351,NA,NA,NA,NA,NA
64132,regret,16,fixation,3,0.3680949580157176,0.2,0,2,1.7350697089568712,0.5,0.7,0.2,6,372,2,1,3,worst,saccade,FIX_16,99855,99940,99967,865.5,870.5,833.4000244140625,778.70001220703125,27,NA,NA,NA,NA,NA
64132,regret,16,fixation,3,0.3680949580157176,0.2,0,2,1.7350697089568712,0.5,0.7,0.2,6,372,2,1,3,worst,saccade,FIX_16,99855,100387,100413,822.29998779296875,776.29998779296875,716.5,729,26,NA,NA,NA,NA,NA
64132,regret,16,feedback,3,0.3680949580157176,0.2,0,2,1.7350697089568712,0.5,0.7,0.2,6,372,2,1,3,worst,fixation,FEEDBACK_16,95110,95297,95546,NA,NA,NA,NA,NA,1292.800048828125,474.7999877929687,1278.9000244140625,465,249
64132,regret,16,feedback,3,0.3680949580157176,0.2,0,2,1.7350697089568712,0.5,0.7,0.2,6,372,2,1,3,worst,fixation,FEEDBACK_16,95110,95868,96100,NA,NA,NA,NA,NA,794,832.79998779296875,799,874,232
64132,regret,16,regret,3,0.3680949580157176,0.2,0,2,1.7350697089568712,0.5,0.7,0.2,6,372,2,1,3,worst,fixation,REGRET_16,97104,97358,97661,NA,NA,NA,NA,NA,672.5999755859375,906.9000244140624,666.0999755859375,903.5999755859376,303
64132,regret,16,regret,3,0.3680949580157176,0.2,0,2,1.7350697089568712,0.5,0.7,0.2,6,372,2,1,3,worst,fixation,REGRET_16,97104,97686,97980,NA,NA,NA,NA,NA,757.4000244140625,885.5999755859375,776,888.79998779296875,294
64132,regret,16,regret,3,0.3680949580157176,0.2,0,2,1.7350697089568712,0.5,0.7,0.2,6,372,2,1,3,worst,fixation,REGRET_16,97104,97998,98302,NA,NA,NA,NA,NA,821.9000244140625,899.29998779296875,828.29998779296875,909.79998779296875,304
64132,regret,16,regret,3,0.3680949580157176,0.2,0,2,1.7350697089568712,0.5,0.7,0.2,6,372,2,1,3,worst,fixation,REGRET_16,97104,98332,98685,NA,NA,NA,NA,NA,900.79998779296875,811.4000244140625,914.79998779296875,784.79998779296875,353
64132,regret,16,regret,3,0.3680949580157176,0.2,0,2,1.7350697089568712,0.5,0.7,0.2,6,372,2,1,3,worst,fixation,REGRET_16,97104,98728,99130,NA,NA,NA,NA,NA,1039.5,659.5999755859375,1064.699951171875,670.0999755859375,402
64132,regret,16,fixation,3,0.3680949580157176,0.2,0,2,1.7350697089568712,0.5,0.7,0.2,6,372,2,1,3,worst,fixation,FIX_16,99855,99968,100386,NA,NA,NA,NA,NA,833.79998779296875,773.20001220703125,823,776.79998779296875,418
64132,regret,17,choice,1,0.3513137080008164,0.5,0,3,0.916997166001238,0.5,0.7,0.2,6,372,2,1,3,medium,saccade,CHOICE_17,100856,101130,101162,678.70001220703125,734.5,508.8999938964844,665.0999755859375,32,NA,NA,NA,NA,NA
64132,regret,17,feedback,1,0.3513137080008164,0.5,0,3,0.916997166001238,0.5,0.7,0.2,6,372,2,1,3,medium,saccade,FEEDBACK_17,101247,101404,101436,475.7999877929687,653,459.2999877929687,490.5,32,NA,NA,NA,NA,NA
64132,regret,17,feedback,1,0.3513137080008164,0.5,0,3,0.916997166001238,0.5,0.7,0.2,6,372,2,1,3,medium,saccade,FEEDBACK_17,101247,101746,102016,452.2000122070313,489.7000122070313,968.0999755859376,664.4000244140625,270,NA,NA,NA,NA,NA
64132,regret,17,feedback,1,0.3513137080008164,0.5,0,3,0.916997166001238,0.5,0.7,0.2,6,372,2,1,3,medium,saccade,FEEDBACK_17,101247,102457,102717,969,718.79998779296875,841.9000244140625,660.70001220703125,260,NA,NA,NA,NA,NA
64132,regret,17,feedback,1,0.3513137080008164,0.5,0,3,0.916997166001238,0.5,0.7,0.2,6,372,2,1,3,medium,saccade,FEEDBACK_17,101247,103160,103184,849,681.5999755859375,801.5999755859375,773.70001220703125,24,NA,NA,NA,NA,NA
64132,regret,17,regret,1,0.3513137080008164,0.5,0,3,0.916997166001238,0.5,0.7,0.2,6,372,2,1,3,medium,saccade,REGRET_17,103251,103465,103481,793.70001220703125,808.29998779296875,787.9000244140625,850.5999755859375,16,NA,NA,NA,NA,NA
64132,regret,17,regret,1,0.3513137080008164,0.5,0,3,0.916997166001238,0.5,0.7,0.2,6,372,2,1,3,medium,saccade,REGRET_17,103251,103620,103636,793.29998779296875,856.5,841.5,887.0999755859375,16,NA,NA,NA,NA,NA
64132,regret,17,regret,1,0.3513137080008164,0.5,0,3,0.916997166001238,0.5,0.7,0.2,6,372,2,1,3,medium,saccade,REGRET_17,103251,103858,103884,848.20001220703125,896.29998779296875,982.70001220703125,899.5999755859375,26,NA,NA,NA,NA,NA
64132,regret,17,regret,1,0.3513137080008164,0.5,0,3,0.916997166001238,0.5,0.7,0.2,6,372,2,1,3,medium,saccade,REGRET_17,103251,104379,104395,997.9000244140624,899.70001220703125,983.5999755859376,863.5,16,NA,NA,NA,NA,NA
64132,regret,17,regret,1,0.3513137080008164,0.5,0,3,0.916997166001238,0.5,0.7,0.2,6,372,2,1,3,medium,saccade,REGRET_17,103251,104424,104621,954.4000244140624,807.70001220703125,845.70001220703125,679.5999755859375,197,NA,NA,NA,NA,NA
64132,regret,17,fixation,1,0.3513137080008164,0.5,0,3,0.916997166001238,0.5,0.7,0.2,6,372,2,1,3,medium,saccade,FIX_17,105174,105399,105426,839.9000244140625,772.4000244140625,824.0999755859375,675.70001220703125,27,NA,NA,NA,NA,NA
64132,regret,17,feedback,1,0.3513137080008164,0.5,0,3,0.916997166001238,0.5,0.7,0.2,6,372,2,1,3,medium,fixation,FEEDBACK_17,101247,101437,101745,NA,NA,NA,NA,NA,459.7999877929687,488,451.7999877929687,488.5,308
64132,regret,17,feedback,1,0.3513137080008164,0.5,0,3,0.916997166001238,0.5,0.7,0.2,6,372,2,1,3,medium,fixation,FEEDBACK_17,101247,102017,102456,NA,NA,NA,NA,NA,968.20001220703125,667.20001220703125,968.9000244140624,717,439
64132,regret,17,feedback,1,0.3513137080008164,0.5,0,3,0.916997166001238,0.5,0.7,0.2,6,372,2,1,3,medium,fixation,FEEDBACK_17,101247,102718,103159,NA,NA,NA,NA,NA,841.9000244140625,662,849,681.20001220703125,441
64132,regret,17,regret,1,0.3513137080008164,0.5,0,3,0.916997166001238,0.5,0.7,0.2,6,372,2,1,3,medium,fixation,REGRET_17,103251,103482,103619,NA,NA,NA,NA,NA,788.20001220703125,852.0999755859375,792.0999755859375,855.79998779296875,137
64132,regret,17,regret,1,0.3513137080008164,0.5,0,3,0.916997166001238,0.5,0.7,0.2,6,372,2,1,3,medium,fixation,REGRET_17,103251,103637,103857,NA,NA,NA,NA,NA,841.5999755859375,888.9000244140625,848.29998779296875,896.4000244140625,220
64132,regret,17,regret,1,0.3513137080008164,0.5,0,3,0.916997166001238,0.5,0.7,0.2,6,372,2,1,3,medium,fixation,REGRET_17,103251,103885,104378,NA,NA,NA,NA,NA,988,899.4000244140625,997.5,901.20001220703125,493
64132,regret,17,regret,1,0.3513137080008164,0.5,0,3,0.916997166001238,0.5,0.7,0.2,6,372,2,1,3,medium,fixation,REGRET_17,103251,104396,104423,NA,NA,NA,NA,NA,982.4000244140624,861.79998779296875,955.29998779296875,810.29998779296875,27
64132,regret,18,choice,2,0.2619343340047635,0.7,0,3,1.5547766250092536,0.5,0.7,0.2,6,372,2,1,3,best,saccade,CHOICE_18,106172,106438,106446,831.4000244140625,664.0999755859375,827.29998779296875,649.70001220703125,8,NA,NA,NA,NA,NA
64132,regret,18,feedback,2,0.2619343340047635,0.7,0,3,1.5547766250092536,0.5,0.7,0.2,6,372,2,1,3,best,saccade,FEEDBACK_18,106466,106707,106733,826.5,643.70001220703125,849.5999755859375,525.20001220703125,26,NA,NA,NA,NA,NA
64132,regret,18,feedback,2,0.2619343340047635,0.7,0,3,1.5547766250092536,0.5,0.7,0.2,6,372,2,1,3,best,saccade,FEEDBACK_18,106466,106924,107263,849.9000244140625,508.8999938964844,894.20001220703125,876,339,NA,NA,NA,NA,NA
64132,regret,18,feedback,2,0.2619343340047635,0.7,0,3,1.5547766250092536,0.5,0.7,0.2,6,372,2,1,3,best,saccade,FEEDBACK_18,106466,107364,107419,898.5999755859375,896,1137.5,1237.300048828125,55,NA,NA,NA,NA,NA
64132,regret,18,feedback,2,0.2619343340047635,0.7,0,3,1.5547766250092536,0.5,0.7,0.2,6,372,2,1,3,best,saccade,FEEDBACK_18,106466,107768,107783,1113.199951171875,1279.9000244140625,1112.5999755859375,1324.4000244140625,15,NA,NA,NA,NA,NA
64132,regret,18,regret,2,0.2619343340047635,0.7,0,3,1.5547766250092536,0.5,0.7,0.2,6,372,2,1,3,best,saccade,REGRET_18,108470,108479,108479,1113.199951171875,1279.9000244140625,1112.5999755859375,1324.4000244140625,0,NA,NA,NA,NA,NA
64132,regret,18,regret,2,0.2619343340047635,0.7,0,3,1.5547766250092536,0.5,0.7,0.2,6,372,2,1,3,best,saccade,REGRET_18,108470,108693,108762,983.4000244140624,1441.800048828125,797.5,863.20001220703125,69,NA,NA,NA,NA,NA
64132,regret,18,regret,2,0.2619343340047635,0.7,0,3,1.5547766250092536,0.5,0.7,0.2,6,372,2,1,3,best,saccade,REGRET_18,108470,108939,108955,800.79998779296875,860.9000244140625,839.29998779296875,900.70001220703125,16,NA,NA,NA,NA,NA
64132,regret,18,regret,2,0.2619343340047635,0.7,0,3,1.5547766250092536,0.5,0.7,0.2,6,372,2,1,3,best,saccade,REGRET_18,108470,109161,109194,847.29998779296875,925.20001220703125,666.0999755859375,933.79998779296875,33,NA,NA,NA,NA,NA
64132,regret,18,regret,2,0.2619343340047635,0.7,0,3,1.5547766250092536,0.5,0.7,0.2,6,372,2,1,3,best,saccade,REGRET_18,108470,109412,109448,654.29998779296875,938.20001220703125,847.5999755859375,856.70001220703125,36,NA,NA,NA,NA,NA
64132,regret,18,regret,2,0.2619343340047635,0.7,0,3,1.5547766250092536,0.5,0.7,0.2,6,372,2,1,3,best,saccade,REGRET_18,108470,109808,109838,867.9000244140625,835.79998779296875,1039.9000244140625,895.4000244140625,30,NA,NA,NA,NA,NA
64132,regret,18,regret,2,0.2619343340047635,0.7,0,3,1.5547766250092536,0.5,0.7,0.2,6,372,2,1,3,best,saccade,REGRET_18,108470,110033,110081,1044,901.5,878.4000244140625,606.70001220703125,48,NA,NA,NA,NA,NA
64132,regret,18,regret,2,0.2619343340047635,0.7,0,3,1.5547766250092536,0.5,0.7,0.2,6,372,2,1,3,best,saccade,REGRET_18,108470,110296,110632,886.9000244140625,607.9000244140625,784.70001220703125,748.5999755859375,336,NA,NA,NA,NA,NA
64132,regret,18,regret,2,0.2619343340047635,0.7,0,3,1.5547766250092536,0.5,0.7,0.2,6,372,2,1,3,best,saccade,REGRET_18,108470,110925,110949,781.5,814.29998779296875,828.5999755859375,735.4000244140625,24,NA,NA,NA,NA,NA
64132,regret,18,feedback,2,0.2619343340047635,0.7,0,3,1.5547766250092536,0.5,0.7,0.2,6,372,2,1,3,best,fixation,FEEDBACK_18,106466,106734,106923,NA,NA,NA,NA,NA,850.5999755859375,520.79998779296875,849.70001220703125,506.3999938964844,189
64132,regret,18,feedback,2,0.2619343340047635,0.7,0,3,1.5547766250092536,0.5,0.7,0.2,6,372,2,1,3,best,fixation,FEEDBACK_18,106466,107264,107363,NA,NA,NA,NA,NA,894.29998779296875,877.20001220703125,898.79998779296875,895.9000244140625,99
64132,regret,18,feedback,2,0.2619343340047635,0.7,0,3,1.5547766250092536,0.5,0.7,0.2,6,372,2,1,3,best,fixation,FEEDBACK_18,106466,107420,107767,NA,NA,NA,NA,NA,1138.300048828125,1237.699951171875,1113,1278,347
64132,regret,18,feedback,2,0.2619343340047635,0.7,0,3,1.5547766250092536,0.5,0.7,0.2,6,372,2,1,3,best,fixation,FEEDBACK_18,106466,107784,107827,NA,NA,NA,NA,NA,1112.5,1326.0999755859375,1112.699951171875,1331.5999755859375,43
64132,regret,18,regret,2,0.2619343340047635,0.7,0,3,1.5547766250092536,0.5,0.7,0.2,6,372,2,1,3,best,fixation,REGRET_18,108470,108480,108692,NA,NA,NA,NA,NA,988.5,1419.699951171875,983.5999755859376,1441.0999755859375,212
64132,regret,18,regret,2,0.2619343340047635,0.7,0,3,1.5547766250092536,0.5,0.7,0.2,6,372,2,1,3,best,fixation,REGRET_18,108470,108763,108938,NA,NA,NA,NA,NA,797.29998779296875,861.5,799.70001220703125,860.5,175
64132,regret,18,regret,2,0.2619343340047635,0.7,0,3,1.5547766250092536,0.5,0.7,0.2,6,372,2,1,3,best,fixation,REGRET_18,108470,108956,109160,NA,NA,NA,NA,NA,840.70001220703125,902.9000244140624,847.4000244140625,925.20001220703125,204
64132,regret,18,regret,2,0.2619343340047635,0.7,0,3,1.5547766250092536,0.5,0.7,0.2,6,372,2,1,3,best,fixation,REGRET_18,108470,109195,109411,NA,NA,NA,NA,NA,664.4000244140625,933.29998779296875,654.4000244140625,938.5,216
64132,regret,18,regret,2,0.2619343340047635,0.7,0,3,1.5547766250092536,0.5,0.7,0.2,6,372,2,1,3,best,fixation,REGRET_18,108470,109449,109807,NA,NA,NA,NA,NA,851,853.5999755859375,868.0999755859375,835.5,358
64132,regret,18,regret,2,0.2619343340047635,0.7,0,3,1.5547766250092536,0.5,0.7,0.2,6,372,2,1,3,best,fixation,REGRET_18,108470,109839,110032,NA,NA,NA,NA,NA,1042.300048828125,895.20001220703125,1043.699951171875,901.5999755859376,193
64132,regret,18,regret,2,0.2619343340047635,0.7,0,3,1.5547766250092536,0.5,0.7,0.2,6,372,2,1,3,best,fixation,REGRET_18,108470,110082,110295,NA,NA,NA,NA,NA,875.79998779296875,604.5999755859375,885.0999755859375,606.9000244140625,213
64132,regret,18,regret,2,0.2619343340047635,0.7,0,3,1.5547766250092536,0.5,0.7,0.2,6,372,2,1,3,best,fixation,REGRET_18,108470,110633,110924,NA,NA,NA,NA,NA,784.9000244140625,750.20001220703125,781.20001220703125,815.0999755859375,291
64132,regret,19,choice,1,0.4451725000399165,0.5,0,3,2.4701539169764146,0.5,0.7,0.2,6,372,2,1,3,medium,saccade,CHOICE_19,112039,112307,112459,841,768.9000244140625,476.8999938964844,634.5,152,NA,NA,NA,NA,NA
64132,regret,19,feedback,1,0.4451725000399165,0.5,0,3,2.4701539169764146,0.5,0.7,0.2,6,372,2,1,3,medium,saccade,FEEDBACK_19,112512,112953,113269,497,666.20001220703125,743.79998779296875,656.29998779296875,316,NA,NA,NA,NA,NA
64132,regret,19,feedback,1,0.4451725000399165,0.5,0,3,2.4701539169764146,0.5,0.7,0.2,6,372,2,1,3,medium,saccade,FEEDBACK_19,112512,113458,113479,738.9000244140625,652.5999755859375,821.0999755859375,660,21,NA,NA,NA,NA,NA
64132,regret,19,feedback,1,0.4451725000399165,0.5,0,3,2.4701539169764146,0.5,0.7,0.2,6,372,2,1,3,medium,saccade,FEEDBACK_19,112512,113636,114262,837.5,685.70001220703125,680.70001220703125,732.29998779296875,626,NA,NA,NA,NA,NA
64132,regret,19,feedback,1,0.4451725000399165,0.5,0,3,2.4701539169764146,0.5,0.7,0.2,6,372,2,1,3,medium,saccade,FEEDBACK_19,112512,114429,114453,688.0999755859375,736.0999755859375,794.70001220703125,684.20001220703125,24,NA,NA,NA,NA,NA
64132,regret,19,regret,1,0.4451725000399165,0.5,0,3,2.4701539169764146,0.5,0.7,0.2,6,372,2,1,3,medium,saccade,REGRET_19,114507,114702,114725,832.70001220703125,693.5,817,811.5999755859375,23,NA,NA,NA,NA,NA
64132,regret,19,regret,1,0.4451725000399165,0.5,0,3,2.4701539169764146,0.5,0.7,0.2,6,372,2,1,3,medium,saccade,REGRET_19,114507,114979,114998,814.79998779296875,824.9000244140625,845.29998779296875,896.29998779296875,19,NA,NA,NA,NA,NA
64132,regret,19,regret,1,0.4451725000399165,0.5,0,3,2.4701539169764146,0.5,0.7,0.2,6,372,2,1,3,medium,saccade,REGRET_19,114507,115106,115325,851.70001220703125,924.29998779296875,639.9000244140625,910.9000244140624,219,NA,NA,NA,NA,NA
64132,regret,19,regret,1,0.4451725000399165,0.5,0,3,2.4701539169764146,0.5,0.7,0.2,6,372,2,1,3,medium,saccade,REGRET_19,114507,115520,115557,637.4000244140625,916.79998779296875,859.4000244140625,821.70001220703125,37,NA,NA,NA,NA,NA
64132,regret,19,regret,1,0.4451725000399165,0.5,0,3,2.4701539169764146,0.5,0.7,0.2,6,372,2,1,3,medium,saccade,REGRET_19,114507,116073,116110,868.5,824.9000244140625,653.5,924.70001220703125,37,NA,NA,NA,NA,NA
64132,regret,19,regret,1,0.4451725000399165,0.5,0,3,2.4701539169764146,0.5,0.7,0.2,6,372,2,1,3,medium,saccade,REGRET_19,114507,116345,116388,655.4000244140625,932.29998779296875,894.5999755859375,826.79998779296875,43,NA,NA,NA,NA,NA
64132,regret,19,regret,1,0.4451725000399165,0.5,0,3,2.4701539169764146,0.5,0.7,0.2,6,372,2,1,3,medium,saccade,REGRET_19,114507,116698,116722,897.9000244140625,827.0999755859375,996.29998779296875,883.20001220703125,24,NA,NA,NA,NA,NA
64132,regret,19,regret,1,0.4451725000399165,0.5,0,3,2.4701539169764146,0.5,0.7,0.2,6,372,2,1,3,medium,saccade,REGRET_19,114507,116919,116987,1018.5999755859376,896.20001220703125,514.79998779296875,571,68,NA,NA,NA,NA,NA
64132,regret,19,regret,1,0.4451725000399165,0.5,0,3,2.4701539169764146,0.5,0.7,0.2,6,372,2,1,3,medium,saccade,REGRET_19,114507,117201,117562,524.29998779296875,594.70001220703125,766.20001220703125,723.5999755859375,361,NA,NA,NA,NA,NA
64132,regret,19,fixation,1,0.4451725000399165,0.5,0,3,2.4701539169764146,0.5,0.7,0.2,6,372,2,1,3,medium,saccade,FIX_19,117991,118000,118023,764.79998779296875,797,827,725.4000244140625,23,NA,NA,NA,NA,NA
64132,regret,19,feedback,1,0.4451725000399165,0.5,0,3,2.4701539169764146,0.5,0.7,0.2,6,372,2,1,3,medium,fixation,FEEDBACK_19,112512,113270,113457,NA,NA,NA,NA,NA,743.5999755859375,657.0999755859375,738.29998779296875,652.70001220703125,187
64132,regret,19,feedback,1,0.4451725000399165,0.5,0,3,2.4701539169764146,0.5,0.7,0.2,6,372,2,1,3,medium,fixation,FEEDBACK_19,112512,113480,113635,NA,NA,NA,NA,NA,823.9000244140625,660.5999755859375,837.4000244140625,685.4000244140625,155
64132,regret,19,feedback,1,0.4451725000399165,0.5,0,3,2.4701539169764146,0.5,0.7,0.2,6,372,2,1,3,medium,fixation,FEEDBACK_19,112512,114263,114428,NA,NA,NA,NA,NA,680.5,732.4000244140625,687.5,736.4000244140625,165
64132,regret,19,regret,1,0.4451725000399165,0.5,0,3,2.4701539169764146,0.5,0.7,0.2,6,372,2,1,3,medium,fixation,REGRET_19,114507,114726,114978,NA,NA,NA,NA,NA,816.4000244140625,813.9000244140625,815.20001220703125,824.5,252
64132,regret,19,regret,1,0.4451725000399165,0.5,0,3,2.4701539169764146,0.5,0.7,0.2,6,372,2,1,3,medium,fixation,REGRET_19,114507,114999,115105,NA,NA,NA,NA,NA,845.5,897.20001220703125,851.5999755859375,922.5999755859376,106
64132,regret,19,regret,1,0.4451725000399165,0.5,0,3,2.4701539169764146,0.5,0.7,0.2,6,372,2,1,3,medium,fixation,REGRET_19,114507,115326,115519,NA,NA,NA,NA,NA,639.70001220703125,912.79998779296875,637.4000244140625,916.9000244140624,193
64132,regret,19,regret,1,0.4451725000399165,0.5,0,3,2.4701539169764146,0.5,0.7,0.2,6,372,2,1,3,medium,fixation,REGRET_19,114507,115558,116072,NA,NA,NA,NA,NA,863.5,820.4000244140625,868.5,824.9000244140625,514
64132,regret,19,regret,1,0.4451725000399165,0.5,0,3,2.4701539169764146,0.5,0.7,0.2,6,372,2,1,3,medium,fixation,REGRET_19,114507,116111,116344,NA,NA,NA,NA,NA,653.0999755859375,924.79998779296875,655.4000244140625,931.5,233
64132,regret,19,regret,1,0.4451725000399165,0.5,0,3,2.4701539169764146,0.5,0.7,0.2,6,372,2,1,3,medium,fixation,REGRET_19,114507,116389,116697,NA,NA,NA,NA,NA,897.79998779296875,826,898,826.79998779296875,308
64132,regret,19,regret,1,0.4451725000399165,0.5,0,3,2.4701539169764146,0.5,0.7,0.2,6,372,2,1,3,medium,fixation,REGRET_19,114507,116723,116918,NA,NA,NA,NA,NA,999.5,885.0999755859375,1018.5999755859376,896.0999755859375,195
64132,regret,19,regret,1,0.4451725000399165,0.5,0,3,2.4701539169764146,0.5,0.7,0.2,6,372,2,1,3,medium,fixation,REGRET_19,114507,116988,117200,NA,NA,NA,NA,NA,514.20001220703125,568.5,524.20001220703125,594.9000244140625,212
64132,regret,20,choice,2,0.3281362080015242,0.7,1,NA,NA,0.5,0.7,0.2,7,372,2,1,3,best,saccade,CHOICE_20,118989,119231,119253,852.9000244140625,713.4000244140625,837.5,638.4000244140625,22,NA,NA,NA,NA,NA
64132,regret,20,feedback,2,0.3281362080015242,0.7,1,NA,NA,0.5,0.7,0.2,7,372,2,1,3,best,saccade,FEEDBACK_20,119360,119526,119554,831.9000244140625,617.20001220703125,844.29998779296875,477,28,NA,NA,NA,NA,NA
64132,regret,20,feedback,2,0.3281362080015242,0.7,1,NA,NA,0.5,0.7,0.2,7,372,2,1,3,best,saccade,FEEDBACK_20,119360,119761,120188,842.4000244140625,444,927,659.0999755859375,427,NA,NA,NA,NA,NA
64132,regret,20,feedback,2,0.3281362080015242,0.7,1,NA,NA,0.5,0.7,0.2,7,372,2,1,3,best,saccade,FEEDBACK_20,119360,120837,120861,917.20001220703125,716.9000244140625,852.20001220703125,670.79998779296875,24,NA,NA,NA,NA,NA
64132,regret,20,fixation,2,0.3281362080015242,0.7,1,NA,NA,0.5,0.7,0.2,7,372,2,1,3,best,saccade,FIX_20,122340,122530,122548,822.4000244140625,692.0999755859375,841.5999755859375,650,18,NA,NA,NA,NA,NA
64132,regret,20,feedback,2,0.3281362080015242,0.7,1,NA,NA,0.5,0.7,0.2,7,372,2,1,3,best,fixation,FEEDBACK_20,119360,119555,119760,NA,NA,NA,NA,NA,844.0999755859375,472.2000122070313,842.20001220703125,443.2000122070313,205
64132,regret,20,feedback,2,0.3281362080015242,0.7,1,NA,NA,0.5,0.7,0.2,7,372,2,1,3,best,fixation,FEEDBACK_20,119360,120189,120836,NA,NA,NA,NA,NA,927.29998779296875,659.20001220703125,918.4000244140624,718.5,647
64132,regret,21,choice,3,0.4389616249827668,0.2,0,3,0.5602372499997728,0.5,0.7,0.2,7,372,2,1,3,worst,saccade,CHOICE_21,123329,123548,123590,876.20001220703125,664.5999755859375,1190.0999755859375,625.5,42,NA,NA,NA,NA,NA
64132,regret,21,feedback,3,0.4389616249827668,0.2,0,3,0.5602372499997728,0.5,0.7,0.2,7,372,2,1,3,worst,saccade,FEEDBACK_21,123812,123979,124004,1180.5999755859375,605.79998779296875,1253,492.6000061035156,25,NA,NA,NA,NA,NA
64132,regret,21,feedback,3,0.4389616249827668,0.2,0,3,0.5602372499997728,0.5,0.7,0.2,7,372,2,1,3,worst,saccade,FEEDBACK_21,123812,124229,124573,1250.300048828125,462.5,605.9000244140625,877.5,344,NA,NA,NA,NA,NA
64132,regret,21,feedback,3,0.4389616249827668,0.2,0,3,0.5602372499997728,0.5,0.7,0.2,7,372,2,1,3,worst,saccade,FEEDBACK_21,123812,124793,124840,611.5,892.5,950.29998779296875,899.79998779296875,47,NA,NA,NA,NA,NA
64132,regret,21,feedback,3,0.4389616249827668,0.2,0,3,0.5602372499997728,0.5,0.7,0.2,7,372,2,1,3,worst,saccade,FEEDBACK_21,123812,125268,125291,946.5999755859376,958.5999755859376,864.5,934.70001220703125,23,NA,NA,NA,NA,NA
64132,regret,21,regret,3,0.4389616249827668,0.2,0,3,0.5602372499997728,0.5,0.7,0.2,7,372,2,1,3,worst,saccade,REGRET_21,125808,126081,126104,840.70001220703125,951.29998779296875,893.9000244140625,922.4000244140624,23,NA,NA,NA,NA,NA
64132,regret,21,regret,3,0.4389616249827668,0.2,0,3,0.5602372499997728,0.5,0.7,0.2,7,372,2,1,3,worst,saccade,REGRET_21,125808,126230,126250,911.5,916.79998779296875,994.29998779296875,917.29998779296875,20,NA,NA,NA,NA,NA
64132,regret,21,regret,3,0.4389616249827668,0.2,0,3,0.5602372499997728,0.5,0.7,0.2,7,372,2,1,3,worst,saccade,REGRET_21,125808,126610,126636,997.70001220703125,925.70001220703125,973,867.4000244140625,26,NA,NA,NA,NA,NA
64132,regret,21,regret,3,0.4389616249827668,0.2,0,3,0.5602372499997728,0.5,0.7,0.2,7,372,2,1,3,worst,saccade,REGRET_21,125808,126666,126965,934.0999755859376,793.0999755859375,845.5999755859375,689.5999755859375,299,NA,NA,NA,NA,NA
64132,regret,21,fixation,3,0.4389616249827668,0.2,0,3,0.5602372499997728,0.5,0.7,0.2,7,372,2,1,3,worst,saccade,FIX_21,127373,127637,127662,856.79998779296875,787.70001220703125,826.5999755859375,724.9000244140625,25,NA,NA,NA,NA,NA
64132,regret,21,feedback,3,0.4389616249827668,0.2,0,3,0.5602372499997728,0.5,0.7,0.2,7,372,2,1,3,worst,fixation,FEEDBACK_21,123812,124005,124228,NA,NA,NA,NA,NA,1254.5999755859375,490.2999877929687,1250.9000244140625,461.2000122070313,223
64132,regret,21,feedback,3,0.4389616249827668,0.2,0,3,0.5602372499997728,0.5,0.7,0.2,7,372,2,1,3,worst,fixation,FEEDBACK_21,123812,124574,124792,NA,NA,NA,NA,NA,605.79998779296875,878,611.5,892.79998779296875,218
64132,regret,21,feedback,3,0.4389616249827668,0.2,0,3,0.5602372499997728,0.5,0.7,0.2,7,372,2,1,3,worst,fixation,FEEDBACK_21,123812,124841,125267,NA,NA,NA,NA,NA,955,899.5999755859375,947.5999755859376,959.29998779296875,426
64132,regret,21,regret,3,0.4389616249827668,0.2,0,3,0.5602372499997728,0.5,0.7,0.2,7,372,2,1,3,worst,fixation,REGRET_21,125808,126105,126229,NA,NA,NA,NA,NA,896.5,920.9000244140624,910.0999755859376,916.70001220703125,124
64132,regret,21,regret,3,0.4389616249827668,0.2,0,3,0.5602372499997728,0.5,0.7,0.2,7,372,2,1,3,worst,fixation,REGRET_21,125808,126251,126609,NA,NA,NA,NA,NA,996.79998779296875,917.29998779296875,999.0999755859376,926.5,358
