pid,condition,trial_index,choice,choice_rt,choice_prob,points,regret,regret_rt,tree_1,tree_2,tree_3,totalpoints,final_points,tree_best,tree_medium,tree_worst,choice_goodbad
33706,early_regret,1,1,4.011942666998948,0.2,0,2,2.937841082995874,0.2,0.7,0.5,0,263,2,3,1,worst
33706,early_regret,2,2,0.8584539159928681,0.7,1,NA,NA,0.2,0.7,0.5,1,263,2,3,1,best
33706,early_regret,3,2,0.6601284999924246,0.7,0,2,1.783138375001727,0.2,0.7,0.5,1,263,2,3,1,best
33706,early_regret,4,3,1.4769763329968555,0.5,0,3,1.3562910839973483,0.2,0.7,0.5,1,263,2,3,1,medium
33706,early_regret,5,1,0.8929890829895157,0.2,1,NA,NA,0.2,0.7,0.5,2,263,2,3,1,worst
33706,early_regret,6,2,0.6514379580039531,0.7,1,NA,NA,0.2,0.7,0.5,3,263,2,3,1,best
33706,early_regret,7,3,0.5675991659954889,0.5,0,3,1.5765238750027493,0.2,0.7,0.5,3,263,2,3,1,medium
33706,early_regret,8,2,0.6103529579995666,0.7,0,3,3.4302010829997016,0.2,0.7,0.5,3,263,2,3,1,best
33706,early_regret,9,1,0.41803229101060424,0.2,0,3,0.8769617920042947,0.2,0.7,0.5,3,263,2,3,1,worst
33706,early_regret,10,2,0.6070340420119464,0.7,1,NA,NA,0.2,0.7,0.5,4,263,2,3,1,best
33706,early_regret,11,2,0.3744715840002754,0.7,1,NA,NA,0.2,0.7,0.5,5,263,2,3,1,best
33706,early_regret,12,2,1.2528655829955824,0.7,0,2,0.5960022090002894,0.2,0.7,0.5,5,263,2,3,1,best
33706,early_regret,13,1,0.7458502919907914,0.2,0,3,0.9613476660015294,0.2,0.7,0.5,5,263,2,3,1,worst
33706,early_regret,14,3,0.5056540829973528,0.5,1,NA,NA,0.2,0.7,0.5,6,263,2,3,1,medium
33706,early_regret,15,1,0.3816012910101563,0.2,0,2,0.49356175000139046,0.2,0.7,0.5,6,263,2,3,1,worst
33706,early_regret,16,3,0.9688747089967364,0.5,1,NA,NA,0.2,0.7,0.5,7,263,2,3,1,medium
33706,early_regret,17,2,1.0908114580088295,0.7,0,2,1.0144040000013774,0.2,0.7,0.5,7,263,2,3,1,best
33706,early_regret,18,3,0.6933297920040786,0.5,0,2,1.3823388329910813,0.2,0.7,0.5,7,263,2,3,1,medium
33706,early_regret,19,1,1.0466524170042248,0.2,0,3,1.9539518340025095,0.2,0.7,0.5,7,263,2,3,1,worst
33706,early_regret,20,1,0.5179041660012444,0.2,0,3,1.1410905000084313,0.2,0.7,0.5,7,263,2,3,1,worst
33706,early_regret,21,2,0.3869367500010412,0.7,0,3,1.325171207994572,0.2,0.7,0.5,7,263,2,3,1,best
33706,early_regret,22,3,1.1021953330055112,0.5,1,NA,NA,0.2,0.7,0.5,8,263,2,3,1,medium
33706,early_regret,23,3,0.7667921660031425,0.5,0,2,0.8537929579906631,0.2,0.7,0.5,8,263,2,3,1,medium
33706,early_regret,24,2,0.6280161659960868,0.7,0,2,1.659005208988674,0.2,0.7,0.5,8,263,2,3,1,best
33706,early_regret,25,1,0.4236154579994036,0.2,0,3,0.7670698750007432,0.2,0.7,0.5,8,263,2,3,1,worst
33706,early_regret,26,2,0.7185764579917304,0.7,1,NA,NA,0.2,0.7,0.5,9,263,2,3,1,best
33706,early_regret,27,1,0.5843989579880144,0.2,0,2,0.9220996249932796,0.2,0.7,0.5,9,263,2,3,1,worst
33706,early_regret,28,2,0.4517108339932747,0.7,0,3,1.3153405409975676,0.2,0.7,0.5,9,263,2,3,1,best
33706,early_regret,29,3,0.9441268329974264,0.5,0,3,0.7041884999925969,0.2,0.7,0.5,9,263,2,3,1,medium
33706,early_regret,30,2,0.9016981669992674,0.7,1,NA,NA,0.2,0.7,0.5,10,263,2,3,1,best
33706,early_regret,31,2,0.6817422079911921,0.7,1,NA,NA,0.2,0.7,0.5,11,263,2,3,1,best
33706,early_regret,32,2,0.5241098340047756,0.7,1,NA,NA,0.2,0.7,0.5,12,263,2,3,1,best
33706,early_regret,33,2,0.5037912080006208,0.7,1,NA,NA,0.2,0.7,0.5,13,263,2,3,1,best
33706,early_regret,34,2,0.3477547910006251,0.7,1,NA,NA,0.2,0.7,0.5,14,263,2,3,1,best
33706,early_regret,35,2,0.8523970829992322,0.7,1,NA,NA,0.2,0.7,0.5,15,263,2,3,1,best
33706,early_regret,36,2,1.0977905409963569,0.7,1,NA,NA,0.2,0.7,0.5,16,263,2,3,1,best
33706,early_regret,37,2,0.7281724579952424,0.7,0,NA,NA,0.2,0.7,0.5,16,263,2,3,1,best
33706,early_regret,38,1,0.6465847500076052,0.2,0,NA,NA,0.2,0.7,0.5,16,263,2,3,1,worst
33706,early_regret,39,2,0.6776037910021842,0.7,0,NA,NA,0.2,0.7,0.5,16,263,2,3,1,best
33706,early_regret,40,3,0.5999109580006916,0.5,0,NA,NA,0.2,0.7,0.5,16,263,2,3,1,medium
33706,early_regret,41,2,0.4182762910058955,0.7,1,NA,NA,0.2,0.7,0.5,17,263,2,3,1,best
33706,early_regret,42,2,0.5826043749984819,0.7,0,NA,NA,0.2,0.7,0.5,17,263,2,3,1,best
33706,early_regret,43,1,0.5444152499985648,0.2,0,NA,NA,0.2,0.7,0.5,17,263,2,3,1,worst
33706,early_regret,44,3,1.2478689999989,0.5,0,NA,NA,0.2,0.7,0.5,17,263,2,3,1,medium
33706,early_regret,45,2,0.7845889589953003,0.7,1,NA,NA,0.2,0.7,0.5,18,263,2,3,1,best
33706,early_regret,46,2,0.3096534590004012,0.7,1,NA,NA,0.2,0.7,0.5,19,263,2,3,1,best
33706,early_regret,47,2,0.6563629169977503,0.7,1,NA,NA,0.2,0.7,0.5,20,263,2,3,1,best
33706,early_regret,48,2,0.4641472499934025,0.7,1,NA,NA,0.2,0.7,0.5,21,263,2,3,1,best
33706,early_regret,49,2,0.5379981669975678,0.7,0,NA,NA,0.2,0.7,0.5,21,263,2,3,1,best
33706,early_regret,50,2,0.49345387499488425,0.7,0,NA,NA,0.2,0.7,0.5,21,263,2,3,1,best
33706,early_regret,51,3,0.48818858299637213,0.5,0,NA,NA,0.2,0.7,0.5,21,263,2,3,1,medium
33706,early_regret,52,1,1.2068598330079112,0.2,0,NA,NA,0.2,0.7,0.5,21,263,2,3,1,worst
33706,early_regret,53,2,0.41077508400485385,0.7,1,NA,NA,0.2,0.7,0.5,22,263,2,3,1,best
33706,early_regret,54,2,0.4766844590049004,0.7,0,NA,NA,0.2,0.7,0.5,22,263,2,3,1,best
33706,early_regret,55,1,0.3602313339943066,0.2,0,NA,NA,0.2,0.7,0.5,22,263,2,3,1,worst
33706,early_regret,56,2,0.727792750010849,0.7,0,NA,NA,0.2,0.7,0.5,22,263,2,3,1,best
33706,early_regret,57,3,0.9615979169902856,0.5,0,NA,NA,0.2,0.7,0.5,22,263,2,3,1,medium
33706,early_regret,58,2,0.45340062500326894,0.7,1,NA,NA,0.2,0.7,0.5,23,263,2,3,1,best
33706,early_regret,59,1,0.4826718340045773,0.2,0,NA,NA,0.2,0.7,0.5,23,263,2,3,1,worst
33706,early_regret,60,2,0.8781085000082385,0.7,1,NA,NA,0.2,0.7,0.5,24,263,2,3,1,best
33799,early_regret,1,3,2.700069499995152,0.2,1,NA,NA,0.7,0.5,0.2,25,263,1,2,3,worst
33799,early_regret,2,2,1.3965862919940264,0.5,0,1,3.659857582999394,0.7,0.5,0.2,25,263,1,2,3,medium
33799,early_regret,3,2,1.256424999999581,0.5,1,NA,NA,0.7,0.5,0.2,26,263,1,2,3,medium
33799,early_regret,4,3,0.8227294999960577,0.2,0,2,1.162454500001331,0.7,0.5,0.2,26,263,1,2,3,worst
33799,early_regret,5,1,0.8995149580005091,0.7,1,NA,NA,0.7,0.5,0.2,27,263,1,2,3,best
33799,early_regret,6,1,0.968291750003118,0.7,1,NA,NA,0.7,0.5,0.2,28,263,1,2,3,best
33799,early_regret,7,2,0.8488741659966763,0.5,1,NA,NA,0.7,0.5,0.2,29,263,1,2,3,medium
33799,early_regret,8,2,1.4854789999953937,0.5,0,1,0.9352497919971938,0.7,0.5,0.2,29,263,1,2,3,medium
33799,early_regret,9,3,0.49347649999981513,0.2,0,1,0.7186338749961578,0.7,0.5,0.2,29,263,1,2,3,worst
33799,early_regret,10,2,0.6164833330039983,0.5,0,2,0.8939493329962716,0.7,0.5,0.2,29,263,1,2,3,medium
33799,early_regret,11,3,1.777507958999195,0.2,0,2,1.1775662080035545,0.7,0.5,0.2,29,263,1,2,3,worst
33799,early_regret,12,2,0.7370350829951349,0.5,1,NA,NA,0.7,0.5,0.2,30,263,1,2,3,medium
33799,early_regret,13,3,0.9557199160044548,0.2,0,1,0.5431486670058803,0.7,0.5,0.2,30,263,1,2,3,worst
33799,early_regret,14,1,0.893042499999865,0.7,1,NA,NA,0.7,0.5,0.2,31,263,1,2,3,best
33799,early_regret,15,1,0.6603448750029202,0.7,1,NA,NA,0.7,0.5,0.2,32,263,1,2,3,best
33799,early_regret,16,2,1.3282324169995263,0.5,1,NA,NA,0.7,0.5,0.2,33,263,1,2,3,medium
33799,early_regret,17,3,0.5443396250047954,0.2,0,1,0.5158717080048518,0.7,0.5,0.2,33,263,1,2,3,worst
33799,early_regret,18,1,0.6443898329962394,0.7,0,1,0.6007781669977703,0.7,0.5,0.2,33,263,1,2,3,best
33799,early_regret,19,2,0.5599915839993628,0.5,0,1,2.0624622920004185,0.7,0.5,0.2,33,263,1,2,3,medium
33799,early_regret,20,3,0.6378603749981266,0.2,0,2,0.3948934170039138,0.7,0.5,0.2,33,263,1,2,3,worst
33799,early_regret,21,2,0.6264636249979958,0.5,1,NA,NA,0.7,0.5,0.2,34,263,1,2,3,medium
33799,early_regret,22,1,0.3291281670026365,0.7,1,NA,NA,0.7,0.5,0.2,35,263,1,2,3,best
33799,early_regret,23,2,0.3006755829992471,0.5,1,NA,NA,0.7,0.5,0.2,36,263,1,2,3,medium
33799,early_regret,24,2,0.3013199579945649,0.5,1,NA,NA,0.7,0.5,0.2,37,263,1,2,3,medium
33799,early_regret,25,3,0.3385796670045238,0.2,0,2,1.115409041995008,0.7,0.5,0.2,37,263,1,2,3,worst
33799,early_regret,26,1,0.5166074589942582,0.7,1,NA,NA,0.7,0.5,0.2,38,263,1,2,3,best
33799,early_regret,27,3,0.3363417080036015,0.2,0,1,0.5318055000025197,0.7,0.5,0.2,38,263,1,2,3,worst
33799,early_regret,28,1,0.3641512920003151,0.7,0,1,0.4521290000047884,0.7,0.5,0.2,38,263,1,2,3,best
33799,early_regret,29,1,0.45069274999696063,0.7,0,1,0.46626979199936613,0.7,0.5,0.2,38,263,1,2,3,best
33799,early_regret,30,1,0.384638832998462,0.7,1,NA,NA,0.7,0.5,0.2,39,263,1,2,3,best
33799,early_regret,31,2,0.5042501669959165,0.5,1,NA,NA,0.7,0.5,0.2,40,263,1,2,3,medium
33799,early_regret,32,1,0.4545328750027693,0.7,1,NA,NA,0.7,0.5,0.2,41,263,1,2,3,best
33799,early_regret,33,1,0.33084579199930886,0.7,1,NA,NA,0.7,0.5,0.2,42,263,1,2,3,best
33799,early_regret,34,2,0.44409429100051057,0.5,1,NA,NA,0.7,0.5,0.2,43,263,1,2,3,medium
33799,early_regret,35,2,0.4892113329988206,0.5,1,NA,NA,0.7,0.5,0.2,44,263,1,2,3,medium
33799,early_regret,36,1,0.25215050000406336,0.7,1,NA,NA,0.7,0.5,0.2,45,263,1,2,3,best
33799,early_regret,37,3,0.33087870799499797,0.2,0,NA,NA,0.7,0.5,0.2,45,263,1,2,3,worst
33799,early_regret,38,1,1.476092042001255,0.7,1,NA,NA,0.7,0.5,0.2,46,263,1,2,3,best
33799,early_regret,39,2,0.6016833329995279,0.5,0,NA,NA,0.7,0.5,0.2,46,263,1,2,3,medium
33799,early_regret,40,1,0.4389299590038718,0.7,1,NA,NA,0.7,0.5,0.2,47,263,1,2,3,best
33799,early_regret,41,3,0.3339899589991546,0.2,0,NA,NA,0.7,0.5,0.2,47,263,1,2,3,worst
33799,early_regret,42,2,0.45749612499639625,0.5,0,NA,NA,0.7,0.5,0.2,47,263,1,2,3,medium
33799,early_regret,43,2,0.5522231249997276,0.5,1,NA,NA,0.7,0.5,0.2,48,263,1,2,3,medium
33799,early_regret,44,1,0.45544599999993807,0.7,1,NA,NA,0.7,0.5,0.2,49,263,1,2,3,best
33799,early_regret,45,2,0.3324213750020135,0.5,1,NA,NA,0.7,0.5,0.2,50,263,1,2,3,medium
33799,early_regret,46,3,0.35072333400603384,0.2,0,NA,NA,0.7,0.5,0.2,50,263,1,2,3,worst
33799,early_regret,47,1,0.6551657500021975,0.7,1,NA,NA,0.7,0.5,0.2,51,263,1,2,3,best
33799,early_regret,48,2,0.3101402500033146,0.5,1,NA,NA,0.7,0.5,0.2,52,263,1,2,3,medium
33799,early_regret,49,1,0.3673672500008251,0.7,1,NA,NA,0.7,0.5,0.2,53,263,1,2,3,best
33799,early_regret,50,1,0.3263516660008463,0.7,1,NA,NA,0.7,0.5,0.2,54,263,1,2,3,best
33799,early_regret,51,2,0.24458112499996787,0.5,1,NA,NA,0.7,0.5,0.2,55,263,1,2,3,medium
33799,early_regret,52,2,0.2874310840052203,0.5,0,NA,NA,0.7,0.5,0.2,55,263,1,2,3,medium
33799,early_regret,53,2,0.2626838329961174,0.5,1,NA,NA,0.7,0.5,0.2,56,263,1,2,3,medium
33799,early_regret,54,1,0.31922550000308547,0.7,1,NA,NA,0.7,0.5,0.2,57,263,1,2,3,best
33799,early_regret,55,1,0.29795287500019185,0.7,0,NA,NA,0.7,0.5,0.2,57,263,1,2,3,best
33799,early_regret,56,3,0.351517374998366,0.2,1,NA,NA,0.7,0.5,0.2,58,263,1,2,3,worst
33799,early_regret,57,3,0.35185824999643955,0.2,1,NA,NA,0.7,0.5,0.2,59,263,1,2,3,worst
33799,early_regret,58,1,0.3931715409999015,0.7,1,NA,NA,0.7,0.5,0.2,60,263,1,2,3,best
33799,early_regret,59,3,0.5213265839993255,0.2,0,NA,NA,0.7,0.5,0.2,60,263,1,2,3,worst
33799,early_regret,60,2,0.694431291994988,0.5,0,NA,NA,0.7,0.5,0.2,60,263,1,2,3,medium
33835,early_regret,1,2,8.278200249988004,0.5,1,NA,NA,0.7,0.5,0.2,61,263,1,2,3,medium
33835,early_regret,2,2,0.8852317499986384,0.5,1,NA,NA,0.7,0.5,0.2,62,263,1,2,3,medium
33835,early_regret,3,2,0.5860311249998631,0.5,1,NA,NA,0.7,0.5,0.2,63,263,1,2,3,medium
33835,early_regret,4,2,1.8969033750036033,0.5,0,1,2.834282667012303,0.7,0.5,0.2,63,263,1,2,3,medium
33835,early_regret,5,2,0.09023262500704732,0.5,0,3,1.251625040997169,0.7,0.5,0.2,63,263,1,2,3,medium
33835,early_regret,6,3,0.3955468339991058,0.2,0,3,0.992292417009594,0.7,0.5,0.2,63,263,1,2,3,worst
33835,early_regret,7,1,0.44027587500750087,0.7,0,3,0.7371119170129532,0.7,0.5,0.2,63,263,1,2,3,best
33835,early_regret,8,2,0.3262838329974329,0.5,1,NA,NA,0.7,0.5,0.2,64,263,1,2,3,medium
33835,early_regret,9,3,0.8735052090050885,0.2,0,3,1.0731479170062812,0.7,0.5,0.2,64,263,1,2,3,worst
33835,early_regret,10,2,0.4159908750007162,0.5,0,3,0.8106326249981066,0.7,0.5,0.2,64,263,1,2,3,medium
33835,early_regret,11,1,0.9047414160013432,0.7,1,NA,NA,0.7,0.5,0.2,65,263,1,2,3,best
33835,early_regret,12,2,1.49510979099432,0.5,1,NA,NA,0.7,0.5,0.2,66,263,1,2,3,medium
33835,early_regret,13,1,0.6295272089919308,0.7,1,NA,NA,0.7,0.5,0.2,67,263,1,2,3,best
33835,early_regret,14,2,0.4038712920009857,0.5,1,NA,NA,0.7,0.5,0.2,68,263,1,2,3,medium
33835,early_regret,15,1,0.7795374999986961,0.7,0,3,0.7577647919970332,0.7,0.5,0.2,68,263,1,2,3,best
33835,early_regret,16,2,0.46946487500099465,0.5,1,NA,NA,0.7,0.5,0.2,69,263,1,2,3,medium
33835,early_regret,17,2,1.223590209003305,0.5,1,NA,NA,0.7,0.5,0.2,70,263,1,2,3,medium
33835,early_regret,18,2,0.712335708012688,0.5,0,2,0.4729878340003779,0.7,0.5,0.2,70,263,1,2,3,medium
33835,early_regret,19,1,0.42094799999904353,0.7,0,2,0.6280162089969963,0.7,0.5,0.2,70,263,1,2,3,best
33835,early_regret,20,2,0.4643843329977244,0.5,0,2,0.5885083329922054,0.7,0.5,0.2,70,263,1,2,3,medium
33835,early_regret,21,3,0.3555612909985939,0.2,0,3,0.3206816669990076,0.7,0.5,0.2,70,263,1,2,3,worst
33835,early_regret,22,1,0.272182458997122,0.7,1,NA,NA,0.7,0.5,0.2,71,263,1,2,3,best
33835,early_regret,23,1,0.45610158299678005,0.7,1,NA,NA,0.7,0.5,0.2,72,263,1,2,3,best
33835,early_regret,24,2,0.3174755000072764,0.5,1,NA,NA,0.7,0.5,0.2,73,263,1,2,3,medium
33835,early_regret,25,2,0.31250358300167136,0.5,0,3,0.782176916996832,0.7,0.5,0.2,73,263,1,2,3,medium
33835,early_regret,26,1,0.463017582995235,0.7,1,NA,NA,0.7,0.5,0.2,74,263,1,2,3,best
33835,early_regret,27,1,0.9552765420085052,0.7,0,2,0.4124069169920403,0.7,0.5,0.2,74,263,1,2,3,best
33835,early_regret,28,2,0.27771358301106375,0.5,0,2,0.597869332996197,0.7,0.5,0.2,74,263,1,2,3,medium
33835,early_regret,29,1,0.215079165995121,0.7,1,NA,NA,0.7,0.5,0.2,75,263,1,2,3,best
33835,early_regret,30,1,1.5769122499914374,0.7,1,NA,NA,0.7,0.5,0.2,76,263,1,2,3,best
33835,early_regret,31,2,0.32857545900333207,0.5,1,NA,NA,0.7,0.5,0.2,77,263,1,2,3,medium
33835,early_regret,32,1,2.4022093340026913,0.7,1,NA,NA,0.7,0.5,0.2,78,263,1,2,3,best
33835,early_regret,33,2,1.136576167002204,0.5,0,NA,NA,0.7,0.5,0.2,78,263,1,2,3,medium
33835,early_regret,34,1,1.4446707500028424,0.7,1,NA,NA,0.7,0.5,0.2,79,263,1,2,3,best
33835,early_regret,35,2,1.5840284579899162,0.5,0,NA,NA,0.7,0.5,0.2,79,263,1,2,3,medium
33835,early_regret,36,1,0.6307154589885613,0.7,0,NA,NA,0.7,0.5,0.2,79,263,1,2,3,best
33835,early_regret,37,2,0.5897792500036303,0.5,1,NA,NA,0.7,0.5,0.2,80,263,1,2,3,medium
33835,early_regret,38,2,1.085287875001086,0.5,0,NA,NA,0.7,0.5,0.2,80,263,1,2,3,medium
33835,early_regret,39,1,1.0899251660011942,0.7,1,NA,NA,0.7,0.5,0.2,81,263,1,2,3,best
33835,early_regret,40,1,0.29583275000914,0.7,1,NA,NA,0.7,0.5,0.2,82,263,1,2,3,best
33835,early_regret,41,2,0.3936296250030864,0.5,1,NA,NA,0.7,0.5,0.2,83,263,1,2,3,medium
33835,early_regret,42,3,0.41090762500243727,0.2,0,NA,NA,0.7,0.5,0.2,83,263,1,2,3,worst
33835,early_regret,43,1,1.5424263329914538,0.7,1,NA,NA,0.7,0.5,0.2,84,263,1,2,3,best
33835,early_regret,44,1,0.5609729579882696,0.7,1,NA,NA,0.7,0.5,0.2,85,263,1,2,3,best
33835,early_regret,45,2,0.37076854199403897,0.5,0,NA,NA,0.7,0.5,0.2,85,263,1,2,3,medium
33835,early_regret,46,1,1.234763667001971,0.7,1,NA,NA,0.7,0.5,0.2,86,263,1,2,3,best
33835,early_regret,47,2,0.31275250000180677,0.5,0,NA,NA,0.7,0.5,0.2,86,263,1,2,3,medium
33835,early_regret,48,1,0.34368141600862145,0.7,0,NA,NA,0.7,0.5,0.2,86,263,1,2,3,best
33835,early_regret,49,2,0.35093087499262765,0.5,0,NA,NA,0.7,0.5,0.2,86,263,1,2,3,medium
33835,early_regret,50,2,0.4394149580039084,0.5,1,NA,NA,0.7,0.5,0.2,87,263,1,2,3,medium
33835,early_regret,51,2,0.34516716698999517,0.5,0,NA,NA,0.7,0.5,0.2,87,263,1,2,3,medium
33835,early_regret,52,1,0.6553098329895874,0.7,1,NA,NA,0.7,0.5,0.2,88,263,1,2,3,best
33835,early_regret,53,1,0.6788514579966431,0.7,1,NA,NA,0.7,0.5,0.2,89,263,1,2,3,best
33835,early_regret,54,1,0.5277303339971695,0.7,0,NA,NA,0.7,0.5,0.2,89,263,1,2,3,best
33835,early_regret,55,2,0.5020492500043474,0.5,0,NA,NA,0.7,0.5,0.2,89,263,1,2,3,medium
33835,early_regret,56,3,0.3844842910039006,0.2,0,NA,NA,0.7,0.5,0.2,89,263,1,2,3,worst
33835,early_regret,57,2,0.822749750004732,0.5,0,NA,NA,0.7,0.5,0.2,89,263,1,2,3,medium
33835,early_regret,58,1,0.38952487500500865,0.7,1,NA,NA,0.7,0.5,0.2,90,263,1,2,3,best
33835,early_regret,59,1,0.29439708300924394,0.7,0,NA,NA,0.7,0.5,0.2,90,263,1,2,3,best
33835,early_regret,60,2,0.2563250419916585,0.5,0,NA,NA,0.7,0.5,0.2,90,263,1,2,3,medium
33928,control,1,2,1.4257336250011576,0.7,0,NA,NA,NA,NA,NA,90,263,NA,NA,NA,NA
33928,control,2,3,1.11819458300306,0.2,0,NA,NA,NA,NA,NA,90,263,NA,NA,NA,NA
33928,control,3,3,1.1388947919986094,0.2,0,NA,NA,NA,NA,NA,90,263,NA,NA,NA,NA
33928,control,4,1,0.4264783329999773,0.5,0,NA,NA,NA,NA,NA,90,263,NA,NA,NA,NA
33928,control,5,1,1.2464157499998691,0.5,1,NA,NA,NA,NA,NA,91,263,NA,NA,NA,NA
33928,control,6,2,0.4463584999975865,0.7,1,NA,NA,NA,NA,NA,92,263,NA,NA,NA,NA
33928,control,7,1,0.4130146669995156,0.5,1,NA,NA,NA,NA,NA,93,263,NA,NA,NA,NA
33928,control,8,1,0.5642809170021792,0.5,0,NA,NA,NA,NA,NA,93,263,NA,NA,NA,NA
33928,control,9,3,0.48481270800402854,0.2,0,NA,NA,NA,NA,NA,93,263,NA,NA,NA,NA
33928,control,10,1,0.36062091599887935,0.5,1,NA,NA,NA,NA,NA,94,263,NA,NA,NA,NA
33928,control,11,2,0.4838789999994333,0.7,1,NA,NA,NA,NA,NA,95,263,NA,NA,NA,NA
33928,control,12,1,0.23037374999694293,0.5,0,NA,NA,NA,NA,NA,95,263,NA,NA,NA,NA
33928,control,13,1,0.1900209579980583,0.5,1,NA,NA,NA,NA,NA,96,263,NA,NA,NA,NA
33928,control,14,2,0.23606724999990547,0.7,0,NA,NA,NA,NA,NA,96,263,NA,NA,NA,NA
33928,control,15,2,0.5379347919952124,0.7,1,NA,NA,NA,NA,NA,97,263,NA,NA,NA,NA
33928,control,16,2,0.245917708001798,0.7,1,NA,NA,NA,NA,NA,98,263,NA,NA,NA,NA
33928,control,17,1,0.23550404099660227,0.5,0,NA,NA,NA,NA,NA,98,263,NA,NA,NA,NA
33928,control,18,1,0.27244591699854936,0.5,0,NA,NA,NA,NA,NA,98,263,NA,NA,NA,NA
33928,control,19,2,0.3892919579957379,0.7,0,NA,NA,NA,NA,NA,98,263,NA,NA,NA,NA
33928,control,20,2,1.3352604589963448,0.7,0,NA,NA,NA,NA,NA,98,263,NA,NA,NA,NA
33928,control,21,1,0.39635733400064055,0.5,1,NA,NA,NA,NA,NA,99,263,NA,NA,NA,NA
33928,control,22,2,0.37490695800079266,0.7,1,NA,NA,NA,NA,NA,100,263,NA,NA,NA,NA
33928,control,23,2,0.36793362499884097,0.7,1,NA,NA,NA,NA,NA,101,263,NA,NA,NA,NA
33928,control,24,1,0.2869779999964521,0.5,0,NA,NA,NA,NA,NA,101,263,NA,NA,NA,NA
33928,control,25,1,0.3890974579990143,0.5,0,NA,NA,NA,NA,NA,101,263,NA,NA,NA,NA
33928,control,26,2,1.4371701670024777,0.7,1,NA,NA,NA,NA,NA,102,263,NA,NA,NA,NA
33928,control,27,3,0.8342667500037351,0.2,0,NA,NA,NA,NA,NA,102,263,NA,NA,NA,NA
33928,control,28,2,0.9202383750016452,0.7,1,NA,NA,NA,NA,NA,103,263,NA,NA,NA,NA
33928,control,29,1,0.23621362500125545,0.5,1,NA,NA,NA,NA,NA,104,263,NA,NA,NA,NA
33928,control,30,2,0.312926583996159,0.7,1,NA,NA,NA,NA,NA,105,263,NA,NA,NA,NA
33928,control,31,2,0.2600694580032723,0.7,0,NA,NA,NA,NA,NA,105,263,NA,NA,NA,NA
33928,control,32,2,0.4323084579955321,0.7,1,NA,NA,NA,NA,NA,106,263,NA,NA,NA,NA
33928,control,33,1,0.25570354200317524,0.5,0,NA,NA,NA,NA,NA,106,263,NA,NA,NA,NA
33928,control,34,1,0.4035126249946188,0.5,0,NA,NA,NA,NA,NA,106,263,NA,NA,NA,NA
33928,control,35,2,0.4112996250041761,0.7,0,NA,NA,NA,NA,NA,106,263,NA,NA,NA,NA
33928,control,36,2,1.2098818750018836,0.7,0,NA,NA,NA,NA,NA,106,263,NA,NA,NA,NA
33928,control,37,2,0.5995160419988679,0.7,1,NA,NA,NA,NA,NA,107,263,NA,NA,NA,NA
33928,control,38,2,0.696873750006489,0.7,1,NA,NA,NA,NA,NA,108,263,NA,NA,NA,NA
33928,control,39,2,0.795143667004595,0.7,1,NA,NA,NA,NA,NA,109,263,NA,NA,NA,NA
33928,control,40,1,0.46625516699714353,0.5,1,NA,NA,NA,NA,NA,110,263,NA,NA,NA,NA
33928,control,41,2,0.8019419999982347,0.7,1,NA,NA,NA,NA,NA,111,263,NA,NA,NA,NA
33928,control,42,2,0.9586062090020278,0.7,1,NA,NA,NA,NA,NA,112,263,NA,NA,NA,NA
33928,control,43,1,0.5441699590010103,0.5,1,NA,NA,NA,NA,NA,113,263,NA,NA,NA,NA
33928,control,44,1,0.49769254199782154,0.5,1,NA,NA,NA,NA,NA,114,263,NA,NA,NA,NA
33928,control,45,2,0.33386433299892815,0.7,0,NA,NA,NA,NA,NA,114,263,NA,NA,NA,NA
33928,control,46,2,0.6784842920023948,0.7,1,NA,NA,NA,NA,NA,115,263,NA,NA,NA,NA
33928,control,47,2,0.2851660840024124,0.7,0,NA,NA,NA,NA,NA,115,263,NA,NA,NA,NA
33928,control,48,1,0.7221742090041516,0.5,1,NA,NA,NA,NA,NA,116,263,NA,NA,NA,NA
33928,control,49,1,0.35370654099824606,0.5,1,NA,NA,NA,NA,NA,117,263,NA,NA,NA,NA
33928,control,50,2,0.5008570420031901,0.7,1,NA,NA,NA,NA,NA,118,263,NA,NA,NA,NA
33928,control,51,1,0.383120083999529,0.5,0,NA,NA,NA,NA,NA,118,263,NA,NA,NA,NA
33928,control,52,2,0.7678585829999065,0.7,1,NA,NA,NA,NA,NA,119,263,NA,NA,NA,NA
33928,control,53,1,0.3130435830025817,0.5,1,NA,NA,NA,NA,NA,120,263,NA,NA,NA,NA
33928,control,54,1,0.67748583300272,0.5,1,NA,NA,NA,NA,NA,121,263,NA,NA,NA,NA
33928,control,55,2,0.43796833300439175,0.7,1,NA,NA,NA,NA,NA,122,263,NA,NA,NA,NA
33928,control,56,2,0.31281624999974156,0.7,1,NA,NA,NA,NA,NA,123,263,NA,NA,NA,NA
33928,control,57,2,0.5909381660021609,0.7,1,NA,NA,NA,NA,NA,124,263,NA,NA,NA,NA
33928,control,58,1,0.27221287499560276,0.5,0,NA,NA,NA,NA,NA,124,263,NA,NA,NA,NA
33928,control,59,2,0.660720667001442,0.7,1,NA,NA,NA,NA,NA,125,263,NA,NA,NA,NA
33928,control,60,2,0.3659986670027138,0.7,1,NA,NA,NA,NA,NA,126,263,NA,NA,NA,NA
34003,late_regret,1,2,0.8761452499966254,0.5,0,NA,NA,0.2,0.5,0.7,126,263,3,2,1,medium
34003,late_regret,2,3,0.5460370830041938,0.7,1,NA,NA,0.2,0.5,0.7,127,263,3,2,1,best
34003,late_regret,3,1,0.3616917920007836,0.2,0,NA,NA,0.2,0.5,0.7,127,263,3,2,1,worst
34003,late_regret,4,3,0.3550659579996136,0.7,1,NA,NA,0.2,0.5,0.7,128,263,3,2,1,best
34003,late_regret,5,3,0.3986073750056675,0.7,0,NA,NA,0.2,0.5,0.7,128,263,3,2,1,best
34003,late_regret,6,2,0.4052775000018301,0.5,1,NA,NA,0.2,0.5,0.7,129,263,3,2,1,medium
34003,late_regret,7,1,0.39568279100058135,0.2,1,NA,NA,0.2,0.5,0.7,130,263,3,2,1,worst
34003,late_regret,8,3,0.3549693750028382,0.7,1,NA,NA,0.2,0.5,0.7,131,263,3,2,1,best
34003,late_regret,9,2,0.4344053750028252,0.5,0,NA,NA,0.2,0.5,0.7,131,263,3,2,1,medium
34003,late_regret,10,3,0.2906157079996774,0.7,0,NA,NA,0.2,0.5,0.7,131,263,3,2,1,best
34003,late_regret,11,1,0.36684533300285693,0.2,0,NA,NA,0.2,0.5,0.7,131,263,3,2,1,worst
34003,late_regret,12,2,0.4798369170021033,0.5,0,NA,NA,0.2,0.5,0.7,131,263,3,2,1,medium
34003,late_regret,13,2,0.35379987500346033,0.5,1,NA,NA,0.2,0.5,0.7,132,263,3,2,1,medium
34003,late_regret,14,3,0.4447247500065714,0.7,0,NA,NA,0.2,0.5,0.7,132,263,3,2,1,best
34003,late_regret,15,3,0.3204619590032962,0.7,1,NA,NA,0.2,0.5,0.7,133,263,3,2,1,best
34003,late_regret,16,1,0.36164895800175145,0.2,0,NA,NA,0.2,0.5,0.7,133,263,3,2,1,worst
34003,late_regret,17,1,0.460509208998701,0.2,0,NA,NA,0.2,0.5,0.7,133,263,3,2,1,worst
34003,late_regret,18,2,0.33765150000544963,0.5,1,NA,NA,0.2,0.5,0.7,134,263,3,2,1,medium
34003,late_regret,19,1,0.3153085409940104,0.2,1,NA,NA,0.2,0.5,0.7,135,263,3,2,1,worst
34003,late_regret,20,2,0.45547000000078697,0.5,0,NA,NA,0.2,0.5,0.7,135,263,3,2,1,medium
34003,late_regret,21,2,0.34882125000149244,0.5,1,NA,NA,0.2,0.5,0.7,136,263,3,2,1,medium
34003,late_regret,22,3,0.3502899579980294,0.7,1,NA,NA,0.2,0.5,0.7,137,263,3,2,1,best
34003,late_regret,23,1,0.3953732910013059,0.2,1,NA,NA,0.2,0.5,0.7,138,263,3,2,1,worst
34003,late_regret,24,2,0.3601671249998617,0.5,1,NA,NA,0.2,0.5,0.7,139,263,3,2,1,medium
34003,late_regret,25,3,0.32786154199857265,0.7,1,NA,NA,0.2,0.5,0.7,140,263,3,2,1,best
34003,late_regret,26,1,0.2905540409992682,0.2,0,NA,NA,0.2,0.5,0.7,140,263,3,2,1,worst
34003,late_regret,27,2,0.3341752920023282,0.5,1,NA,NA,0.2,0.5,0.7,141,263,3,2,1,medium
34003,late_regret,28,3,0.32131495799694676,0.7,1,NA,NA,0.2,0.5,0.7,142,263,3,2,1,best
34003,late_regret,29,1,0.2834548749960959,0.2,0,NA,NA,0.2,0.5,0.7,142,263,3,2,1,worst
34003,late_regret,30,1,0.6870995829958702,0.2,0,NA,NA,0.2,0.5,0.7,142,263,3,2,1,worst
34003,late_regret,31,2,0.4353537920032977,0.5,0,2,3.06101862500509,0.2,0.5,0.7,142,263,3,2,1,medium
34003,late_regret,32,2,0.6278626249986701,0.5,0,1,1.3862868750002235,0.2,0.5,0.7,142,263,3,2,1,medium
34003,late_regret,33,3,0.3823395840008743,0.7,1,NA,NA,0.2,0.5,0.7,143,263,3,2,1,best
34003,late_regret,34,1,0.4490168750053272,0.2,0,1,0.9273251670019818,0.2,0.5,0.7,143,263,3,2,1,worst
34003,late_regret,35,2,0.3783866250014398,0.5,0,1,0.941649291999056,0.2,0.5,0.7,143,263,3,2,1,medium
34003,late_regret,36,3,0.46437829099886585,0.7,1,NA,NA,0.2,0.5,0.7,144,263,3,2,1,best
34003,late_regret,37,3,0.7581073749970528,0.7,1,NA,NA,0.2,0.5,0.7,145,263,3,2,1,best
34003,late_regret,38,2,0.3294196670030942,0.5,1,NA,NA,0.2,0.5,0.7,146,263,3,2,1,medium
34003,late_regret,39,1,0.38602954099769704,0.2,0,1,0.9673894999941696,0.2,0.5,0.7,146,263,3,2,1,worst
34003,late_regret,40,3,0.5050932500016643,0.7,1,NA,NA,0.2,0.5,0.7,147,263,3,2,1,best
34003,late_regret,41,3,0.2833442080009263,0.7,1,NA,NA,0.2,0.5,0.7,148,263,3,2,1,best
34003,late_regret,42,3,0.3185271250040387,0.7,0,1,0.5408842499964521,0.2,0.5,0.7,148,263,3,2,1,best
34003,late_regret,43,1,0.41132845799438655,0.2,0,1,0.6802385000046343,0.2,0.5,0.7,148,263,3,2,1,worst
34003,late_regret,44,2,0.3978681250009686,0.5,1,NA,NA,0.2,0.5,0.7,149,263,3,2,1,medium
34003,late_regret,45,3,0.32846341600088635,0.7,0,1,0.6614596250001341,0.2,0.5,0.7,149,263,3,2,1,best
34003,late_regret,46,1,0.36246666700026253,0.2,0,1,0.7539197919977596,0.2,0.5,0.7,149,263,3,2,1,worst
34003,late_regret,47,2,0.4048917079999228,0.5,1,NA,NA,0.2,0.5,0.7,150,263,3,2,1,medium
34003,late_regret,48,3,0.3328146249987185,0.7,1,NA,NA,0.2,0.5,0.7,151,263,3,2,1,best
34003,late_regret,49,1,0.29462524999689776,0.2,1,NA,NA,0.2,0.5,0.7,152,263,3,2,1,worst
34003,late_regret,50,3,0.28551970799890114,0.7,1,NA,NA,0.2,0.5,0.7,153,263,3,2,1,best
34003,late_regret,51,2,0.3516274159992463,0.5,0,1,0.7523000419969321,0.2,0.5,0.7,153,263,3,2,1,medium
34003,late_regret,52,1,0.4495042080015992,0.2,0,1,0.4583387499951641,0.2,0.5,0.7,153,263,3,2,1,worst
34003,late_regret,53,2,0.3479602910010726,0.5,0,2,0.3949566670053173,0.2,0.5,0.7,153,263,3,2,1,medium
34003,late_regret,54,3,0.3646777500034659,0.7,0,1,0.35729587500100024,0.2,0.5,0.7,153,263,3,2,1,best
34003,late_regret,55,1,0.3013532090044464,0.2,0,1,0.4046578750057961,0.2,0.5,0.7,153,263,3,2,1,worst
34003,late_regret,56,1,0.2958792909994372,0.2,0,1,0.42942095900070854,0.2,0.5,0.7,153,263,3,2,1,worst
34003,late_regret,57,2,0.3280195420011296,0.5,1,NA,NA,0.2,0.5,0.7,154,263,3,2,1,medium
34003,late_regret,58,3,0.4686527920057415,0.7,1,NA,NA,0.2,0.5,0.7,155,263,3,2,1,best
34003,late_regret,59,1,0.39375324999855366,0.2,0,1,0.5707955830002902,0.2,0.5,0.7,155,263,3,2,1,worst
34003,late_regret,60,2,0.2978184590028832,0.5,0,1,0.5463253339985386,0.2,0.5,0.7,155,263,3,2,1,medium
34054,control,1,1,0.7837877919955645,0.7,0,NA,NA,NA,NA,NA,155,263,NA,NA,NA,NA
34054,control,2,2,0.7963952089776285,0.5,0,NA,NA,NA,NA,NA,155,263,NA,NA,NA,NA
34054,control,3,1,0.3653030830028001,0.7,1,NA,NA,NA,NA,NA,156,263,NA,NA,NA,NA
34054,control,4,3,0.5912494160002097,0.2,0,NA,NA,NA,NA,NA,156,263,NA,NA,NA,NA
34054,control,5,3,0.4070029580034315,0.2,0,NA,NA,NA,NA,NA,156,263,NA,NA,NA,NA
34054,control,6,1,0.2713614999956917,0.7,0,NA,NA,NA,NA,NA,156,263,NA,NA,NA,NA
34054,control,7,2,0.6788048750022426,0.5,0,NA,NA,NA,NA,NA,156,263,NA,NA,NA,NA
34054,control,8,2,0.5906049170007464,0.5,0,NA,NA,NA,NA,NA,156,263,NA,NA,NA,NA
34054,control,9,1,1.201039250008762,0.7,0,NA,NA,NA,NA,NA,156,263,NA,NA,NA,NA
34054,control,10,1,0.35636045900173485,0.7,0,NA,NA,NA,NA,NA,156,263,NA,NA,NA,NA
34054,control,11,2,0.3697680000041146,0.5,1,NA,NA,NA,NA,NA,157,263,NA,NA,NA,NA
34054,control,12,1,0.32994679201510735,0.7,1,NA,NA,NA,NA,NA,158,263,NA,NA,NA,NA
34054,control,13,2,0.3698960000183434,0.5,1,NA,NA,NA,NA,NA,159,263,NA,NA,NA,NA
34054,control,14,3,0.3490081669879146,0.2,1,NA,NA,NA,NA,NA,160,263,NA,NA,NA,NA
34054,control,15,3,0.5132224999833852,0.2,1,NA,NA,NA,NA,NA,161,263,NA,NA,NA,NA
34054,control,16,2,0.3845657080237288,0.5,1,NA,NA,NA,NA,NA,162,263,NA,NA,NA,NA
34054,control,17,1,0.6891478750039823,0.7,0,NA,NA,NA,NA,NA,162,263,NA,NA,NA,NA
34054,control,18,3,0.29620983300264925,0.2,0,NA,NA,NA,NA,NA,162,263,NA,NA,NA,NA
34054,control,19,1,0.27314154198393226,0.7,1,NA,NA,NA,NA,NA,163,263,NA,NA,NA,NA
34054,control,20,2,0.4746691249893047,0.5,0,NA,NA,NA,NA,NA,163,263,NA,NA,NA,NA
34054,control,21,1,0.6174245830043219,0.7,1,NA,NA,NA,NA,NA,164,263,NA,NA,NA,NA
34054,control,22,1,0.3687627920007799,0.7,1,NA,NA,NA,NA,NA,165,263,NA,NA,NA,NA
34054,control,23,1,0.4289908749924507,0.7,0,NA,NA,NA,NA,NA,165,263,NA,NA,NA,NA
34054,control,24,3,0.0973130839993246,0.2,0,NA,NA,NA,NA,NA,165,263,NA,NA,NA,NA
34054,control,25,2,0.4562072080152575,0.5,0,NA,NA,NA,NA,NA,165,263,NA,NA,NA,NA
34054,control,26,2,0.4772914999921341,0.5,1,NA,NA,NA,NA,NA,166,263,NA,NA,NA,NA
34054,control,27,1,0.29908716698992066,0.7,1,NA,NA,NA,NA,NA,167,263,NA,NA,NA,NA
34054,control,28,2,0.4284162919793744,0.5,1,NA,NA,NA,NA,NA,168,263,NA,NA,NA,NA
34054,control,29,1,0.7429126249917317,0.7,1,NA,NA,NA,NA,NA,169,263,NA,NA,NA,NA
34054,control,30,3,0.3899157499836292,0.2,0,NA,NA,NA,NA,NA,169,263,NA,NA,NA,NA
34054,control,31,2,0.5509596659976523,0.5,1,NA,NA,NA,NA,NA,170,263,NA,NA,NA,NA
34054,control,32,1,0.05450912498054094,0.7,0,NA,NA,NA,NA,NA,170,263,NA,NA,NA,NA
34054,control,33,3,0.1444189999892842,0.2,0,NA,NA,NA,NA,NA,170,263,NA,NA,NA,NA
34054,control,34,2,0.4707033330050763,0.5,0,NA,NA,NA,NA,NA,170,263,NA,NA,NA,NA
34054,control,35,1,0.4632188339892309,0.7,0,NA,NA,NA,NA,NA,170,263,NA,NA,NA,NA
34054,control,36,2,0.5055339579994325,0.5,1,NA,NA,NA,NA,NA,171,263,NA,NA,NA,NA
34054,control,37,1,0.26726466600666754,0.7,1,NA,NA,NA,NA,NA,172,263,NA,NA,NA,NA
34054,control,38,2,0.48294979199999943,0.5,1,NA,NA,NA,NA,NA,173,263,NA,NA,NA,NA
34054,control,39,1,0.5983435830275994,0.7,1,NA,NA,NA,NA,NA,174,263,NA,NA,NA,NA
34054,control,40,1,0.4853263749973849,0.7,1,NA,NA,NA,NA,NA,175,263,NA,NA,NA,NA
34054,control,41,2,0.5033490000059828,0.5,1,NA,NA,NA,NA,NA,176,263,NA,NA,NA,NA
34054,control,42,1,0.31192687500151806,0.7,1,NA,NA,NA,NA,NA,177,263,NA,NA,NA,NA
34054,control,43,2,0.6229670830070972,0.5,0,NA,NA,NA,NA,NA,177,263,NA,NA,NA,NA
34054,control,44,3,0.31908654200378805,0.2,0,NA,NA,NA,NA,NA,177,263,NA,NA,NA,NA
34054,control,45,1,0.4063487499952316,0.7,1,NA,NA,NA,NA,NA,178,263,NA,NA,NA,NA
34054,control,46,2,0.5306739169755019,0.5,1,NA,NA,NA,NA,NA,179,263,NA,NA,NA,NA
34054,control,47,1,0.4606817079766188,0.7,1,NA,NA,NA,NA,NA,180,263,NA,NA,NA,NA
34054,control,48,2,0.472202417004155,0.5,1,NA,NA,NA,NA,NA,181,263,NA,NA,NA,NA
34054,control,49,1,0.372505875013303,0.7,1,NA,NA,NA,NA,NA,182,263,NA,NA,NA,NA
34054,control,50,3,0.3343939160113223,0.2,0,NA,NA,NA,NA,NA,182,263,NA,NA,NA,NA
34054,control,51,2,0.6551149169972632,0.5,0,NA,NA,NA,NA,NA,182,263,NA,NA,NA,NA
34054,control,52,1,0.4373221249843482,0.7,1,NA,NA,NA,NA,NA,183,263,NA,NA,NA,NA
34054,control,53,2,0.6523163340170868,0.5,1,NA,NA,NA,NA,NA,184,263,NA,NA,NA,NA
34054,control,54,1,0.4082663750159554,0.7,1,NA,NA,NA,NA,NA,185,263,NA,NA,NA,NA
34054,control,55,2,0.6073228750028647,0.5,1,NA,NA,NA,NA,NA,186,263,NA,NA,NA,NA
34054,control,56,1,0.6873800409957767,0.7,1,NA,NA,NA,NA,NA,187,263,NA,NA,NA,NA
34054,control,57,3,0.39322374999755993,0.2,0,NA,NA,NA,NA,NA,187,263,NA,NA,NA,NA
34054,control,58,2,0.5485071660077665,0.5,0,NA,NA,NA,NA,NA,187,263,NA,NA,NA,NA
34054,control,59,1,0.3896532500220928,0.7,0,NA,NA,NA,NA,NA,187,263,NA,NA,NA,NA
34054,control,60,2,0.628070500009926,0.5,0,NA,NA,NA,NA,NA,187,263,NA,NA,NA,NA
34066,late_regret,1,2,3.988571415990009,0.2,0,NA,NA,0.5,0.2,0.7,187,263,3,1,2,worst
34066,late_regret,2,1,1.48645845799183,0.5,1,NA,NA,0.5,0.2,0.7,188,263,3,1,2,medium
34066,late_regret,3,1,0.8178380419994937,0.5,1,NA,NA,0.5,0.2,0.7,189,263,3,1,2,medium
34066,late_regret,4,1,0.6496282919979421,0.5,0,NA,NA,0.5,0.2,0.7,189,263,3,1,2,medium
34066,late_regret,5,3,0.951499333998072,0.7,1,NA,NA,0.5,0.2,0.7,190,263,3,1,2,best
34066,late_regret,6,3,0.5850936659990111,0.7,1,NA,NA,0.5,0.2,0.7,191,263,3,1,2,best
34066,late_regret,7,3,0.6793782500026282,0.7,0,NA,NA,0.5,0.2,0.7,191,263,3,1,2,best
34066,late_regret,8,2,0.9870221669989404,0.2,0,NA,NA,0.5,0.2,0.7,191,263,3,1,2,worst
34066,late_regret,9,1,0.46716783300507814,0.5,0,NA,NA,0.5,0.2,0.7,191,263,3,1,2,medium
34066,late_regret,10,2,1.1041545000043698,0.2,0,NA,NA,0.5,0.2,0.7,191,263,3,1,2,worst
34066,late_regret,11,1,0.5154287089972058,0.5,1,NA,NA,0.5,0.2,0.7,192,263,3,1,2,medium
34066,late_regret,12,1,0.7128359589987667,0.5,1,NA,NA,0.5,0.2,0.7,193,263,3,1,2,medium
34066,late_regret,13,3,0.5318164580094162,0.7,1,NA,NA,0.5,0.2,0.7,194,263,3,1,2,best
34066,late_regret,14,3,0.5269083340099314,0.7,0,NA,NA,0.5,0.2,0.7,194,263,3,1,2,best
34066,late_regret,15,1,1.2298900419991696,0.5,0,NA,NA,0.5,0.2,0.7,194,263,3,1,2,medium
34066,late_regret,16,3,0.3452830000023823,0.7,1,NA,NA,0.5,0.2,0.7,195,263,3,1,2,best
34066,late_regret,17,3,0.7139252909983043,0.7,1,NA,NA,0.5,0.2,0.7,196,263,3,1,2,best
34066,late_regret,18,1,0.5533178329933435,0.5,0,NA,NA,0.5,0.2,0.7,196,263,3,1,2,medium
34066,late_regret,19,2,0.7368847499892581,0.2,0,NA,NA,0.5,0.2,0.7,196,263,3,1,2,worst
34066,late_regret,20,3,0.4018764159991406,0.7,0,NA,NA,0.5,0.2,0.7,196,263,3,1,2,best
34066,late_regret,21,1,0.3955800419935258,0.5,1,NA,NA,0.5,0.2,0.7,197,263,3,1,2,medium
34066,late_regret,22,1,0.5178440410090843,0.5,1,NA,NA,0.5,0.2,0.7,198,263,3,1,2,medium
34066,late_regret,23,1,0.4860251249920111,0.5,0,NA,NA,0.5,0.2,0.7,198,263,3,1,2,medium
34066,late_regret,24,3,0.5524461250024615,0.7,1,NA,NA,0.5,0.2,0.7,199,263,3,1,2,best
34066,late_regret,25,3,0.5618940840067808,0.7,1,NA,NA,0.5,0.2,0.7,200,263,3,1,2,best
34066,late_regret,26,3,0.5028015409916406,0.7,1,NA,NA,0.5,0.2,0.7,201,263,3,1,2,best
34066,late_regret,27,3,0.6083530000032624,0.7,0,NA,NA,0.5,0.2,0.7,201,263,3,1,2,best
34066,late_regret,28,1,0.44774175000202376,0.5,0,NA,NA,0.5,0.2,0.7,201,263,3,1,2,medium
34066,late_regret,29,1,0.4231393750087591,0.5,0,NA,NA,0.5,0.2,0.7,201,263,3,1,2,medium
34066,late_regret,30,3,0.5869834169861861,0.7,1,NA,NA,0.5,0.2,0.7,202,263,3,1,2,best
34066,late_regret,31,3,0.33890558300481644,0.7,0,1,2.9031156249984633,0.5,0.2,0.7,202,263,3,1,2,best
34066,late_regret,32,1,0.81601020898961,0.5,0,1,2.0941321249993052,0.5,0.2,0.7,202,263,3,1,2,medium
34066,late_regret,33,2,0.7528721660055453,0.2,0,2,1.214527749994886,0.5,0.2,0.7,202,263,3,1,2,worst
34066,late_regret,34,3,0.5631338340026559,0.7,1,NA,NA,0.5,0.2,0.7,203,263,3,1,2,best
34066,late_regret,35,3,0.560916417001863,0.7,0,1,2.60945425000682,0.5,0.2,0.7,203,263,3,1,2,best
34066,late_regret,36,1,0.00947545899543911,0.5,1,NA,NA,0.5,0.2,0.7,204,263,3,1,2,medium
34066,late_regret,37,1,0.46672541699081194,0.5,1,NA,NA,0.5,0.2,0.7,205,263,3,1,2,medium
34066,late_regret,38,1,0.48872791598842014,0.5,0,1,1.6741218329989351,0.5,0.2,0.7,205,263,3,1,2,medium
34066,late_regret,39,3,0.9084976669983008,0.7,1,NA,NA,0.5,0.2,0.7,206,263,3,1,2,best
34066,late_regret,40,3,0.5628636250039563,0.7,1,NA,NA,0.5,0.2,0.7,207,263,3,1,2,best
34066,late_regret,41,1,2.0969016249873675,0.5,0,2,1.552885334007442,0.5,0.2,0.7,207,263,3,1,2,medium
34066,late_regret,42,3,0.5581755829916801,0.7,0,1,0.8034352920076344,0.5,0.2,0.7,207,263,3,1,2,best
34066,late_regret,43,3,0.3294297499960521,0.7,1,NA,NA,0.5,0.2,0.7,208,263,3,1,2,best
34066,late_regret,44,3,0.4192145420092857,0.7,1,NA,NA,0.5,0.2,0.7,209,263,3,1,2,best
34066,late_regret,45,3,0.6318775000108872,0.7,1,NA,NA,0.5,0.2,0.7,210,263,3,1,2,best
34066,late_regret,46,3,0.42400645899761,0.7,1,NA,NA,0.5,0.2,0.7,211,263,3,1,2,best
34066,late_regret,47,3,0.4762433329888154,0.7,1,NA,NA,0.5,0.2,0.7,212,263,3,1,2,best
34066,late_regret,48,3,0.4495387920032954,0.7,1,NA,NA,0.5,0.2,0.7,213,263,3,1,2,best
34066,late_regret,49,3,0.528868749999674,0.7,0,1,0.4719322499877307,0.5,0.2,0.7,213,263,3,1,2,best
34066,late_regret,50,1,0.6472951670002658,0.5,0,2,2.562016333991778,0.5,0.2,0.7,213,263,3,1,2,medium
34066,late_regret,51,3,0.3554307919985149,0.7,1,NA,NA,0.5,0.2,0.7,214,263,3,1,2,best
34066,late_regret,52,3,0.5078941660030978,0.7,1,NA,NA,0.5,0.2,0.7,215,263,3,1,2,best
34066,late_regret,53,3,0.39598383399425074,0.7,1,NA,NA,0.5,0.2,0.7,216,263,3,1,2,best
34066,late_regret,54,3,0.9273411670001224,0.7,1,NA,NA,0.5,0.2,0.7,217,263,3,1,2,best
34066,late_regret,55,3,0.5487923750042683,0.7,1,NA,NA,0.5,0.2,0.7,218,263,3,1,2,best
34066,late_regret,56,3,0.4836462079983903,0.7,1,NA,NA,0.5,0.2,0.7,219,263,3,1,2,best
34066,late_regret,57,3,0.5441929579974385,0.7,0,1,0.7842001670069294,0.5,0.2,0.7,219,263,3,1,2,best
34066,late_regret,58,3,0.380750041003921,0.7,1,NA,NA,0.5,0.2,0.7,220,263,3,1,2,best
34066,late_regret,59,3,0.38658929101075046,0.7,1,NA,NA,0.5,0.2,0.7,221,263,3,1,2,best
34066,late_regret,60,3,0.4123812500038184,0.7,1,NA,NA,0.5,0.2,0.7,222,263,3,1,2,best
34108,early_regret,1,1,1.7166950420069045,0.5,0,3,2.0442138749931473,0.5,0.7,0.2,222,263,2,1,3,medium
34108,early_regret,2,2,1.5675612080085557,0.7,1,NA,NA,0.5,0.7,0.2,223,263,2,1,3,best
34108,early_regret,3,3,1.1529102080094162,0.2,0,3,1.9631077079975512,0.5,0.7,0.2,223,263,2,1,3,worst
34108,early_regret,4,1,1.0819823750061914,0.5,1,NA,NA,0.5,0.7,0.2,224,263,2,1,3,medium
34108,early_regret,5,1,1.060547750006663,0.5,0,3,1.2482511659909503,0.5,0.7,0.2,224,263,2,1,3,medium
34108,early_regret,6,2,0.6005316250084434,0.7,1,NA,NA,0.5,0.7,0.2,225,263,2,1,3,best
34108,early_regret,7,3,0.7676809169934131,0.2,0,3,1.3433549579931423,0.5,0.7,0.2,225,263,2,1,3,worst
34108,early_regret,8,2,0.9860715420218183,0.7,1,NA,NA,0.5,0.7,0.2,226,263,2,1,3,best
34108,early_regret,9,1,0.8001901250099763,0.5,1,NA,NA,0.5,0.7,0.2,227,263,2,1,3,medium
34108,early_regret,10,2,0.4859247089771088,0.7,1,NA,NA,0.5,0.7,0.2,228,263,2,1,3,best
34108,early_regret,11,3,0.5025354999816045,0.2,0,2,1.0661870000185445,0.5,0.7,0.2,228,263,2,1,3,worst
34108,early_regret,12,2,0.5536647090048064,0.7,1,NA,NA,0.5,0.7,0.2,229,263,2,1,3,best
34108,early_regret,13,1,0.548415750003187,0.5,1,NA,NA,0.5,0.7,0.2,230,263,2,1,3,medium
34108,early_regret,14,2,0.5091678340104409,0.7,1,NA,NA,0.5,0.7,0.2,231,263,2,1,3,best
34108,early_regret,15,1,0.4825636660098098,0.5,1,NA,NA,0.5,0.7,0.2,232,263,2,1,3,medium
34108,early_regret,16,2,0.4507552080031018,0.7,1,NA,NA,0.5,0.7,0.2,233,263,2,1,3,best
34108,early_regret,17,1,0.6683614999928977,0.5,1,NA,NA,0.5,0.7,0.2,234,263,2,1,3,medium
34108,early_regret,18,2,0.3681193749944214,0.7,1,NA,NA,0.5,0.7,0.2,235,263,2,1,3,best
34108,early_regret,19,1,0.31779154200921766,0.5,0,2,0.6657753750041593,0.5,0.7,0.2,235,263,2,1,3,medium
34108,early_regret,20,2,0.42414045901387,0.7,1,NA,NA,0.5,0.7,0.2,236,263,2,1,3,best
34108,early_regret,21,3,0.33673325000563636,0.2,0,2,1.7691853749856818,0.5,0.7,0.2,236,263,2,1,3,worst
34108,early_regret,22,2,0.4864057919767219,0.7,0,2,0.9611250410089268,0.5,0.7,0.2,236,263,2,1,3,best
34108,early_regret,23,2,0.3336248749983497,0.7,1,NA,NA,0.5,0.7,0.2,237,263,2,1,3,best
34108,early_regret,24,2,0.5183377500216011,0.7,1,NA,NA,0.5,0.7,0.2,238,263,2,1,3,best
34108,early_regret,25,2,0.3206521249958314,0.7,1,NA,NA,0.5,0.7,0.2,239,263,2,1,3,best
34108,early_regret,26,2,0.34489120898069814,0.7,1,NA,NA,0.5,0.7,0.2,240,263,2,1,3,best
34108,early_regret,27,2,0.6212293340067845,0.7,0,2,1.517931167007191,0.5,0.7,0.2,240,263,2,1,3,best
34108,early_regret,28,2,0.45500162499956787,0.7,1,NA,NA,0.5,0.7,0.2,241,263,2,1,3,best
34108,early_regret,29,1,0.31315433300915174,0.5,1,NA,NA,0.5,0.7,0.2,242,263,2,1,3,medium
34108,early_regret,30,2,0.6953186249884311,0.7,0,2,1.1635182500176595,0.5,0.7,0.2,242,263,2,1,3,best
34108,early_regret,31,3,0.32229145799647085,0.2,0,NA,NA,0.5,0.7,0.2,242,263,2,1,3,worst
34108,early_regret,32,2,0.5606714999885298,0.7,1,NA,NA,0.5,0.7,0.2,243,263,2,1,3,best
34108,early_regret,33,1,0.4938150410016533,0.5,0,NA,NA,0.5,0.7,0.2,243,263,2,1,3,medium
34108,early_regret,34,2,0.5679931250051595,0.7,1,NA,NA,0.5,0.7,0.2,244,263,2,1,3,best
34108,early_regret,35,2,0.3222001660033129,0.7,1,NA,NA,0.5,0.7,0.2,245,263,2,1,3,best
34108,early_regret,36,2,0.33439675002591684,0.7,1,NA,NA,0.5,0.7,0.2,246,263,2,1,3,best
34108,early_regret,37,2,0.3854390410124324,0.7,1,NA,NA,0.5,0.7,0.2,247,263,2,1,3,best
34108,early_regret,38,2,0.4603077080100775,0.7,1,NA,NA,0.5,0.7,0.2,248,263,2,1,3,best
34108,early_regret,39,2,0.3621846250025555,0.7,1,NA,NA,0.5,0.7,0.2,249,263,2,1,3,best
34108,early_regret,40,2,0.3356057080090977,0.7,0,NA,NA,0.5,0.7,0.2,249,263,2,1,3,best
34108,early_regret,41,3,0.3234075830259826,0.2,1,NA,NA,0.5,0.7,0.2,250,263,2,1,3,worst
34108,early_regret,42,2,0.49422270798822865,0.7,1,NA,NA,0.5,0.7,0.2,251,263,2,1,3,best
34108,early_regret,43,3,0.30518133300938644,0.2,0,NA,NA,0.5,0.7,0.2,251,263,2,1,3,worst
34108,early_regret,44,2,0.37222758401185274,0.7,1,NA,NA,0.5,0.7,0.2,252,263,2,1,3,best
34108,early_regret,45,2,0.3662065420066938,0.7,1,NA,NA,0.5,0.7,0.2,253,263,2,1,3,best
34108,early_regret,46,2,0.5444207079999615,0.7,1,NA,NA,0.5,0.7,0.2,254,263,2,1,3,best
34108,early_regret,47,2,0.5862509160069749,0.7,1,NA,NA,0.5,0.7,0.2,255,263,2,1,3,best
34108,early_regret,48,2,0.46472962500411086,0.7,0,NA,NA,0.5,0.7,0.2,255,263,2,1,3,best
34108,early_regret,49,1,0.4851016669999808,0.5,0,NA,NA,0.5,0.7,0.2,255,263,2,1,3,medium
34108,early_regret,50,3,0.3137399999832269,0.2,0,NA,NA,0.5,0.7,0.2,255,263,2,1,3,worst
34108,early_regret,51,2,0.3673650830169208,0.7,1,NA,NA,0.5,0.7,0.2,256,263,2,1,3,best
34108,early_regret,52,2,0.5425991670053918,0.7,1,NA,NA,0.5,0.7,0.2,257,263,2,1,3,best
34108,early_regret,53,2,0.5580054580059368,0.7,1,NA,NA,0.5,0.7,0.2,258,263,2,1,3,best
34108,early_regret,54,2,0.5288463750039227,0.7,1,NA,NA,0.5,0.7,0.2,259,263,2,1,3,best
34108,early_regret,55,2,0.3726218749943655,0.7,1,NA,NA,0.5,0.7,0.2,260,263,2,1,3,best
34108,early_regret,56,2,0.517900707985973,0.7,1,NA,NA,0.5,0.7,0.2,261,263,2,1,3,best
34108,early_regret,57,2,0.48157554198405705,0.7,1,NA,NA,0.5,0.7,0.2,262,263,2,1,3,best
34108,early_regret,58,1,0.954972417006502,0.5,1,NA,NA,0.5,0.7,0.2,263,263,2,1,3,medium
34108,early_regret,59,3,0.7732768749992829,0.2,0,NA,NA,0.5,0.7,0.2,263,263,2,1,3,worst
34108,early_regret,60,2,0.32845699999597855,0.7,0,NA,NA,0.5,0.7,0.2,263,263,2,1,3,best
