pid,condition,trial_index,choice,choice_rt,choice_prob,points,regret,regret_rt,tree_1,tree_2,tree_3,totalpoints,final_points,tree_best,tree_medium,tree_worst,choice_goodbad
64132,regret,1,3,1.8917485830024816,0.2,1,NA,NA,0.5,0.7,0.2,1,372,2,1,3,worst
64132,regret,2,1,1.477564834000077,0.5,1,NA,NA,0.5,0.7,0.2,2,372,2,1,3,medium
64132,regret,3,1,0.45845220796763897,0.5,0,2,7.927681708009914,0.5,0.7,0.2,2,372,2,1,3,medium
64132,regret,4,2,0.7563305419753306,0.7,0,2,2.362353709002491,0.5,0.7,0.2,2,372,2,1,3,best
64132,regret,5,3,1.4699076659744603,0.2,0,2,1.2160995840094984,0.5,0.7,0.2,2,372,2,1,3,worst
64132,regret,6,1,0.6487435000017285,0.5,1,NA,NA,0.5,0.7,0.2,3,372,2,1,3,medium
64132,regret,7,1,0.38910387497162446,0.5,1,NA,NA,0.5,0.7,0.2,4,372,2,1,3,medium
64132,regret,8,2,0.3597296249936335,0.7,1,NA,NA,0.5,0.7,0.2,5,372,2,1,3,best
64132,regret,9,3,0.744123375043273,0.2,0,1,0.5668457079445943,0.5,0.7,0.2,5,372,2,1,3,worst
64132,regret,10,2,0.9279760419740342,0.7,1,NA,NA,0.5,0.7,0.2,6,372,2,1,3,best
64132,regret,11,3,0.4617061670287512,0.2,0,2,4.142869999981485,0.5,0.7,0.2,6,372,2,1,3,worst
64132,regret,12,3,0.7696402499568649,0.2,0,2,0.7060800840263255,0.5,0.7,0.2,6,372,2,1,3,worst
64132,regret,13,1,0.397659208974801,0.5,0,3,0.6267741250339895,0.5,0.7,0.2,6,372,2,1,3,medium
64132,regret,14,2,0.4011587499990128,0.7,0,3,1.7893749580252916,0.5,0.7,0.2,6,372,2,1,3,best
64132,regret,15,3,0.4012397089973092,0.2,0,3,2.215900667011738,0.5,0.7,0.2,6,372,2,1,3,worst
64132,regret,16,3,0.3680949580157176,0.2,0,2,1.7350697089568712,0.5,0.7,0.2,6,372,2,1,3,worst
64132,regret,17,1,0.3513137080008164,0.5,0,3,0.916997166001238,0.5,0.7,0.2,6,372,2,1,3,medium
64132,regret,18,2,0.2619343340047635,0.7,0,3,1.5547766250092536,0.5,0.7,0.2,6,372,2,1,3,best
64132,regret,19,1,0.4451725000399165,0.5,0,3,2.4701539169764146,0.5,0.7,0.2,6,372,2,1,3,medium
64132,regret,20,2,0.3281362080015242,0.7,1,NA,NA,0.5,0.7,0.2,7,372,2,1,3,best
64132,regret,21,3,0.4389616249827668,0.2,0,3,0.5602372499997728,0.5,0.7,0.2,7,372,2,1,3,worst
64132,regret,22,1,0.3178234589868225,0.5,0,2,1.2415342910098843,0.5,0.7,0.2,7,372,2,1,3,medium
64132,regret,23,2,0.3942933750222437,0.7,1,NA,NA,0.5,0.7,0.2,8,372,2,1,3,best
64132,regret,24,2,0.3723190419841558,0.7,1,NA,NA,0.5,0.7,0.2,9,372,2,1,3,best
64132,regret,25,3,0.3457904169918038,0.2,1,NA,NA,0.5,0.7,0.2,10,372,2,1,3,worst
64132,regret,26,2,0.5503647919977084,0.7,0,1,0.5478824999881908,0.5,0.7,0.2,10,372,2,1,3,best
64132,regret,27,1,0.720901166961994,0.5,0,1,0.43287091702222824,0.5,0.7,0.2,10,372,2,1,3,medium
64132,regret,28,2,0.5430748329963535,0.7,1,NA,NA,0.5,0.7,0.2,11,372,2,1,3,best
64132,regret,29,2,0.46871220797766,0.7,0,2,2.874953792023007,0.5,0.7,0.2,11,372,2,1,3,best
64132,regret,30,3,0.3945016660145484,0.2,0,3,1.3577340420451949,0.5,0.7,0.2,11,372,2,1,3,worst
64132,regret,31,1,0.3320557500119321,0.5,1,NA,NA,0.5,0.7,0.2,12,372,2,1,3,medium
64132,regret,32,2,0.2853797919815406,0.7,0,NA,NA,0.5,0.7,0.2,12,372,2,1,3,best
64132,regret,33,1,0.6644884169800207,0.5,1,NA,NA,0.5,0.7,0.2,13,372,2,1,3,medium
64132,regret,34,3,0.4298220829805359,0.2,0,NA,NA,0.5,0.7,0.2,13,372,2,1,3,worst
64132,regret,35,2,0.4442915830295533,0.7,1,NA,NA,0.5,0.7,0.2,14,372,2,1,3,best
64132,regret,36,1,0.4904577079578303,0.5,0,NA,NA,0.5,0.7,0.2,14,372,2,1,3,medium
64132,regret,37,1,0.3443399160169065,0.5,0,NA,NA,0.5,0.7,0.2,14,372,2,1,3,medium
64132,regret,38,3,0.36738641699776053,0.2,1,NA,NA,0.5,0.7,0.2,15,372,2,1,3,worst
64132,regret,39,2,0.5763232090394013,0.7,1,NA,NA,0.5,0.7,0.2,16,372,2,1,3,best
64132,regret,40,3,0.43409216694999486,0.2,0,NA,NA,0.5,0.7,0.2,16,372,2,1,3,worst
64132,regret,41,1,0.39780224999412894,0.5,0,NA,NA,0.5,0.7,0.2,16,372,2,1,3,medium
64132,regret,42,2,0.39848979096859694,0.7,1,NA,NA,0.5,0.7,0.2,17,372,2,1,3,best
64132,regret,43,3,0.37275337503524497,0.2,1,NA,NA,0.5,0.7,0.2,18,372,2,1,3,worst
64132,regret,44,1,0.4132771670119837,0.5,0,NA,NA,0.5,0.7,0.2,18,372,2,1,3,medium
64132,regret,45,3,0.3111851660069078,0.2,0,NA,NA,0.5,0.7,0.2,18,372,2,1,3,worst
64132,regret,46,3,0.33006562502123415,0.2,0,NA,NA,0.5,0.7,0.2,18,372,2,1,3,worst
64132,regret,47,3,0.3190236249938607,0.2,1,NA,NA,0.5,0.7,0.2,19,372,2,1,3,worst
64132,regret,48,3,0.5965649170102552,0.2,0,NA,NA,0.5,0.7,0.2,19,372,2,1,3,worst
64132,regret,49,1,0.7108961670310237,0.5,0,NA,NA,0.5,0.7,0.2,19,372,2,1,3,medium
64132,regret,50,2,0.37799712497508153,0.7,1,NA,NA,0.5,0.7,0.2,20,372,2,1,3,best
64132,regret,51,1,1.0336758330231532,0.5,1,NA,NA,0.5,0.7,0.2,21,372,2,1,3,medium
64132,regret,52,2,0.4940150000038557,0.7,1,NA,NA,0.5,0.7,0.2,22,372,2,1,3,best
64132,regret,53,3,0.35361870797351,0.2,1,NA,NA,0.5,0.7,0.2,23,372,2,1,3,worst
64132,regret,54,1,0.4849285410018638,0.5,0,NA,NA,0.5,0.7,0.2,23,372,2,1,3,medium
64132,regret,55,2,0.4063473329879343,0.7,1,NA,NA,0.5,0.7,0.2,24,372,2,1,3,best
64132,regret,56,3,0.4045467920368538,0.2,0,NA,NA,0.5,0.7,0.2,24,372,2,1,3,worst
64132,regret,57,2,0.35162133298581466,0.7,1,NA,NA,0.5,0.7,0.2,25,372,2,1,3,best
64132,regret,58,1,0.4558594999834895,0.5,1,NA,NA,0.5,0.7,0.2,26,372,2,1,3,medium
64132,regret,59,2,0.3730695829726755,0.7,1,NA,NA,0.5,0.7,0.2,27,372,2,1,3,best
64132,regret,60,3,0.45185699994908646,0.2,0,NA,NA,0.5,0.7,0.2,27,372,2,1,3,worst
76752,regret,1,2,1.833433000021614,0.7,1,NA,NA,0.2,0.7,0.5,28,372,2,3,1,best
76752,regret,2,1,1.422749959048815,0.2,1,NA,NA,0.2,0.7,0.5,29,372,2,3,1,worst
76752,regret,3,2,2.935090749990195,0.7,0,2,4.700824125029612,0.2,0.7,0.5,29,372,2,3,1,best
76752,regret,4,3,1.22366412502015,0.5,1,NA,NA,0.2,0.7,0.5,30,372,2,3,1,medium
76752,regret,5,1,1.1981239590095356,0.2,0,1,1.176403958001174,0.2,0.7,0.5,30,372,2,3,1,worst
76752,regret,6,2,1.2928848749725148,0.7,0,2,2.68383483402431,0.2,0.7,0.5,30,372,2,3,1,best
76752,regret,7,3,0.40478137496393174,0.5,1,NA,NA,0.2,0.7,0.5,31,372,2,3,1,medium
76752,regret,8,2,0.6198482920299284,0.7,1,NA,NA,0.2,0.7,0.5,32,372,2,3,1,best
76752,regret,9,1,0.8228005409473553,0.2,1,NA,NA,0.2,0.7,0.5,33,372,2,3,1,worst
76752,regret,10,3,0.37277679197723046,0.5,1,NA,NA,0.2,0.7,0.5,34,372,2,3,1,medium
76752,regret,11,2,0.4300907499855384,0.7,1,NA,NA,0.2,0.7,0.5,35,372,2,3,1,best
76752,regret,12,1,0.29398949997266755,0.2,0,1,2.527422250015661,0.2,0.7,0.5,35,372,2,3,1,worst
76752,regret,13,2,0.57230341702234,0.7,1,NA,NA,0.2,0.7,0.5,36,372,2,3,1,best
76752,regret,14,3,0.7017135000205599,0.5,0,1,0.6148468329920433,0.2,0.7,0.5,36,372,2,3,1,medium
76752,regret,15,2,0.7137642499874346,0.7,0,2,0.8598600829718634,0.2,0.7,0.5,36,372,2,3,1,best
76752,regret,16,1,0.4364789999672212,0.2,0,3,0.7988173750345595,0.2,0.7,0.5,36,372,2,3,1,worst
76752,regret,17,3,0.9685138750355692,0.5,0,3,0.8542491660336964,0.2,0.7,0.5,36,372,2,3,1,medium
76752,regret,18,2,0.5876687499694526,0.7,1,NA,NA,0.2,0.7,0.5,37,372,2,3,1,best
76752,regret,19,1,0.9496376669849268,0.2,0,2,0.7884392919950187,0.2,0.7,0.5,37,372,2,3,1,worst
76752,regret,20,3,0.44334629096556455,0.5,1,NA,NA,0.2,0.7,0.5,38,372,2,3,1,medium
76752,regret,21,2,0.2676555839716457,0.7,1,NA,NA,0.2,0.7,0.5,39,372,2,3,1,best
76752,regret,22,1,0.5182919159997255,0.2,1,NA,NA,0.2,0.7,0.5,40,372,2,3,1,worst
76752,regret,23,2,0.5782797080464661,0.7,0,2,1.4151764590060338,0.2,0.7,0.5,40,372,2,3,1,best
76752,regret,24,3,2.0700128749595024,0.5,1,NA,NA,0.2,0.7,0.5,41,372,2,3,1,medium
76752,regret,25,2,0.3219564160099253,0.7,0,2,0.44775887503055856,0.2,0.7,0.5,41,372,2,3,1,best
76752,regret,26,1,0.31254591699689627,0.2,0,2,0.9679659589892252,0.2,0.7,0.5,41,372,2,3,1,worst
76752,regret,27,2,0.43658129102550447,0.7,1,NA,NA,0.2,0.7,0.5,42,372,2,3,1,best
76752,regret,28,3,0.7861016250099055,0.5,0,2,0.9086163750034756,0.2,0.7,0.5,42,372,2,3,1,medium
76752,regret,29,2,0.8349829170037992,0.7,0,2,0.501954208011739,0.2,0.7,0.5,42,372,2,3,1,best
76752,regret,30,1,0.9670679999981076,0.2,0,2,0.5535419170046225,0.2,0.7,0.5,42,372,2,3,1,worst
76752,regret,31,2,0.8976820830139332,0.7,1,NA,NA,0.2,0.7,0.5,43,372,2,3,1,best
76752,regret,32,3,0.7449464999954216,0.5,0,NA,NA,0.2,0.7,0.5,43,372,2,3,1,medium
76752,regret,33,3,0.8993549160077237,0.5,0,NA,NA,0.2,0.7,0.5,43,372,2,3,1,medium
76752,regret,34,1,0.5411396250128746,0.2,0,NA,NA,0.2,0.7,0.5,43,372,2,3,1,worst
76752,regret,35,2,0.27800849999766797,0.7,1,NA,NA,0.2,0.7,0.5,44,372,2,3,1,best
76752,regret,36,3,0.2847654999932274,0.5,1,NA,NA,0.2,0.7,0.5,45,372,2,3,1,medium
76752,regret,37,2,0.55048233398702,0.7,0,NA,NA,0.2,0.7,0.5,45,372,2,3,1,best
76752,regret,38,2,0.6558262499747798,0.7,0,NA,NA,0.2,0.7,0.5,45,372,2,3,1,best
76752,regret,39,1,0.558810957998503,0.2,1,NA,NA,0.2,0.7,0.5,46,372,2,3,1,worst
76752,regret,40,2,0.7014427499962039,0.7,1,NA,NA,0.2,0.7,0.5,47,372,2,3,1,best
76752,regret,41,3,0.6280321250087582,0.5,1,NA,NA,0.2,0.7,0.5,48,372,2,3,1,medium
76752,regret,42,2,0.6606592090101913,0.7,0,NA,NA,0.2,0.7,0.5,48,372,2,3,1,best
76752,regret,43,1,0.7141766670392826,0.2,0,NA,NA,0.2,0.7,0.5,48,372,2,3,1,worst
76752,regret,44,3,0.7010321670095436,0.5,1,NA,NA,0.2,0.7,0.5,49,372,2,3,1,medium
76752,regret,45,2,0.5848469579941593,0.7,1,NA,NA,0.2,0.7,0.5,50,372,2,3,1,best
76752,regret,46,1,0.3988035840447992,0.2,0,NA,NA,0.2,0.7,0.5,50,372,2,3,1,worst
76752,regret,47,2,0.5623313749674708,0.7,1,NA,NA,0.2,0.7,0.5,51,372,2,3,1,best
76752,regret,48,3,0.3754480829811655,0.5,1,NA,NA,0.2,0.7,0.5,52,372,2,3,1,medium
76752,regret,49,2,0.6288100410019979,0.7,0,NA,NA,0.2,0.7,0.5,52,372,2,3,1,best
76752,regret,50,1,1.029497833980713,0.2,0,NA,NA,0.2,0.7,0.5,52,372,2,3,1,worst
76752,regret,51,3,0.3825333340209909,0.5,0,NA,NA,0.2,0.7,0.5,52,372,2,3,1,medium
76752,regret,52,2,0.3826346249552443,0.7,1,NA,NA,0.2,0.7,0.5,53,372,2,3,1,best
76752,regret,53,3,0.2535138330422342,0.5,1,NA,NA,0.2,0.7,0.5,54,372,2,3,1,medium
76752,regret,54,2,1.7782401249860411,0.7,0,NA,NA,0.2,0.7,0.5,54,372,2,3,1,best
76752,regret,55,2,0.2814205419854261,0.7,1,NA,NA,0.2,0.7,0.5,55,372,2,3,1,best
76752,regret,56,1,0.4427588329999707,0.2,1,NA,NA,0.2,0.7,0.5,56,372,2,3,1,worst
76752,regret,57,1,0.272050583967939,0.2,0,NA,NA,0.2,0.7,0.5,56,372,2,3,1,worst
76752,regret,58,2,0.30203070904826745,0.7,1,NA,NA,0.2,0.7,0.5,57,372,2,3,1,best
76752,regret,59,3,0.4229420000337995,0.5,0,NA,NA,0.2,0.7,0.5,57,372,2,3,1,medium
76752,regret,60,2,0.5035302079631947,0.7,1,NA,NA,0.2,0.7,0.5,58,372,2,3,1,best
88188,regret,1,3,3.86919191700872,0.5,1,NA,NA,0.7,0.2,0.5,59,372,1,3,2,medium
88188,regret,2,1,3.1431325000012293,0.7,1,NA,NA,0.7,0.2,0.5,60,372,1,3,2,best
88188,regret,3,2,2.006503749988042,0.2,0,2,10.31906650000019,0.7,0.2,0.5,60,372,1,3,2,worst
88188,regret,4,3,5.535237792006228,0.5,0,3,0.8992948749801144,0.7,0.2,0.5,60,372,1,3,2,medium
88188,regret,5,1,2.180162958044093,0.7,1,NA,NA,0.7,0.2,0.5,61,372,1,3,2,best
88188,regret,6,2,3.4666240419610403,0.2,0,2,5.662267041974701,0.7,0.2,0.5,61,372,1,3,2,worst
88188,regret,7,3,3.1382248330046423,0.5,1,NA,NA,0.7,0.2,0.5,62,372,1,3,2,medium
88188,regret,8,3,1.902316832973156,0.5,1,NA,NA,0.7,0.2,0.5,63,372,1,3,2,medium
88188,regret,9,3,0.5032908749999478,0.5,1,NA,NA,0.7,0.2,0.5,64,372,1,3,2,medium
88188,regret,10,3,0.7476929999538697,0.5,0,1,5.395939000009093,0.7,0.2,0.5,64,372,1,3,2,medium
88188,regret,11,1,1.597367917012889,0.7,1,NA,NA,0.7,0.2,0.5,65,372,1,3,2,best
88188,regret,12,1,0.7954414170235395,0.7,1,NA,NA,0.7,0.2,0.5,66,372,1,3,2,best
88188,regret,13,1,0.6373961670324206,0.7,1,NA,NA,0.7,0.2,0.5,67,372,1,3,2,best
88188,regret,14,1,0.6790068330010399,0.7,1,NA,NA,0.7,0.2,0.5,68,372,1,3,2,best
88188,regret,15,1,0.5667892919736914,0.7,1,NA,NA,0.7,0.2,0.5,69,372,1,3,2,best
88188,regret,16,3,1.388871625007596,0.5,1,NA,NA,0.7,0.2,0.5,70,372,1,3,2,medium
88188,regret,17,1,0.7454150840057991,0.7,1,NA,NA,0.7,0.2,0.5,71,372,1,3,2,best
88188,regret,18,1,0.9283924580086024,0.7,1,NA,NA,0.7,0.2,0.5,72,372,1,3,2,best
88188,regret,19,3,1.035919832997024,0.5,1,NA,NA,0.7,0.2,0.5,73,372,1,3,2,medium
88188,regret,20,1,0.8288501669885591,0.7,0,1,1.7336830000276675,0.7,0.2,0.5,73,372,1,3,2,best
88188,regret,21,3,1.7503338750102555,0.5,0,2,2.3242235830402933,0.7,0.2,0.5,73,372,1,3,2,medium
88188,regret,22,2,0.8020551250083372,0.2,1,NA,NA,0.7,0.2,0.5,74,372,1,3,2,worst
88188,regret,23,2,0.741053625009954,0.2,0,3,1.778292540984694,0.7,0.2,0.5,74,372,1,3,2,worst
88188,regret,24,3,0.7169977090088651,0.5,0,2,2.2776452919933945,0.7,0.2,0.5,74,372,1,3,2,medium
88188,regret,25,1,1.538995207985863,0.7,1,NA,NA,0.7,0.2,0.5,75,372,1,3,2,best
88188,regret,26,1,0.4351762500009499,0.7,1,NA,NA,0.7,0.2,0.5,76,372,1,3,2,best
88188,regret,27,1,0.515469458012376,0.7,1,NA,NA,0.7,0.2,0.5,77,372,1,3,2,best
88188,regret,28,1,0.8232698750216514,0.7,1,NA,NA,0.7,0.2,0.5,78,372,1,3,2,best
88188,regret,29,1,0.6952742499997839,0.7,1,NA,NA,0.7,0.2,0.5,79,372,1,3,2,best
88188,regret,30,1,0.7367211249656975,0.7,1,NA,NA,0.7,0.2,0.5,80,372,1,3,2,best
88188,regret,31,1,0.4181610000086948,0.7,1,NA,NA,0.7,0.2,0.5,81,372,1,3,2,best
88188,regret,32,1,0.7948338330024853,0.7,1,NA,NA,0.7,0.2,0.5,82,372,1,3,2,best
88188,regret,33,1,0.6640763329924084,0.7,1,NA,NA,0.7,0.2,0.5,83,372,1,3,2,best
88188,regret,34,1,0.4872209579916671,0.7,1,NA,NA,0.7,0.2,0.5,84,372,1,3,2,best
88188,regret,35,1,1.09625712496927,0.7,1,NA,NA,0.7,0.2,0.5,85,372,1,3,2,best
88188,regret,36,1,0.412653416977264,0.7,1,NA,NA,0.7,0.2,0.5,86,372,1,3,2,best
88188,regret,37,1,0.31023304199334234,0.7,1,NA,NA,0.7,0.2,0.5,87,372,1,3,2,best
88188,regret,38,1,0.38986833300441504,0.7,1,NA,NA,0.7,0.2,0.5,88,372,1,3,2,best
88188,regret,39,1,0.4111772499745712,0.7,1,NA,NA,0.7,0.2,0.5,89,372,1,3,2,best
88188,regret,40,1,0.3287950830417685,0.7,1,NA,NA,0.7,0.2,0.5,90,372,1,3,2,best
88188,regret,41,1,0.6490070000290871,0.7,1,NA,NA,0.7,0.2,0.5,91,372,1,3,2,best
88188,regret,42,1,4.227840750012547,0.7,1,NA,NA,0.7,0.2,0.5,92,372,1,3,2,best
88188,regret,43,1,0.3874617079854943,0.7,1,NA,NA,0.7,0.2,0.5,93,372,1,3,2,best
88188,regret,44,1,0.35582379199331626,0.7,0,NA,NA,0.7,0.2,0.5,93,372,1,3,2,best
88188,regret,45,3,13.42236074997345,0.5,1,NA,NA,0.7,0.2,0.5,94,372,1,3,2,medium
88188,regret,46,1,0.8133450840250589,0.7,1,NA,NA,0.7,0.2,0.5,95,372,1,3,2,best
88188,regret,47,1,0.38580720796016976,0.7,1,NA,NA,0.7,0.2,0.5,96,372,1,3,2,best
88188,regret,48,1,0.6764787080464885,0.7,0,NA,NA,0.7,0.2,0.5,96,372,1,3,2,best
88188,regret,49,3,0.6453500420320779,0.5,1,NA,NA,0.7,0.2,0.5,97,372,1,3,2,medium
88188,regret,50,2,0.5162572910194285,0.2,0,NA,NA,0.7,0.2,0.5,97,372,1,3,2,worst
88188,regret,51,1,0.640526500006672,0.7,1,NA,NA,0.7,0.2,0.5,98,372,1,3,2,best
88188,regret,52,1,0.5169615420163609,0.7,1,NA,NA,0.7,0.2,0.5,99,372,1,3,2,best
88188,regret,53,3,0.6556575420545414,0.5,0,NA,NA,0.7,0.2,0.5,99,372,1,3,2,medium
88188,regret,54,1,0.3981068329885602,0.7,1,NA,NA,0.7,0.2,0.5,100,372,1,3,2,best
88188,regret,55,1,0.32772787497378886,0.7,1,NA,NA,0.7,0.2,0.5,101,372,1,3,2,best
88188,regret,56,1,0.39822512498358265,0.7,0,NA,NA,0.7,0.2,0.5,101,372,1,3,2,best
88188,regret,57,3,0.3771057080011815,0.5,1,NA,NA,0.7,0.2,0.5,102,372,1,3,2,medium
88188,regret,58,2,0.45563649997347966,0.2,1,NA,NA,0.7,0.2,0.5,103,372,1,3,2,worst
88188,regret,59,3,0.35543920804047957,0.5,1,NA,NA,0.7,0.2,0.5,104,372,1,3,2,medium
88188,regret,60,2,0.4601371250464581,0.2,0,NA,NA,0.7,0.2,0.5,104,372,1,3,2,worst
135340,regret,1,3,0.8928069999674335,0.5,0,3,3.5645172499935143,0.2,0.7,0.5,104,372,2,3,1,medium
135340,regret,2,2,1.16788262501359,0.7,0,2,2.740718332992401,0.2,0.7,0.5,104,372,2,3,1,best
135340,regret,3,1,1.0629907079855911,0.2,0,2,2.1643713749945164,0.2,0.7,0.5,104,372,2,3,1,worst
135340,regret,4,3,1.7162520829588177,0.5,0,2,1.4621409579995088,0.2,0.7,0.5,104,372,2,3,1,medium
135340,regret,5,1,0.7808129170443863,0.2,0,1,2.855740540951956,0.2,0.7,0.5,104,372,2,3,1,worst
135340,regret,6,2,0.730633958010003,0.7,0,1,0.7042290410026908,0.2,0.7,0.5,104,372,2,3,1,best
135340,regret,7,3,0.4647054589586333,0.5,0,1,0.49711733299773186,0.2,0.7,0.5,104,372,2,3,1,medium
135340,regret,8,1,0.8301475000334904,0.2,0,1,0.776507832983043,0.2,0.7,0.5,104,372,2,3,1,worst
135340,regret,9,2,0.5194030000129715,0.7,1,NA,NA,0.2,0.7,0.5,105,372,2,3,1,best
135340,regret,10,2,1.4224559579743072,0.7,0,1,0.6458290410228074,0.2,0.7,0.5,105,372,2,3,1,best
135340,regret,11,3,0.44439208396943286,0.5,0,1,3.4531836669775657,0.2,0.7,0.5,105,372,2,3,1,medium
135340,regret,12,2,2.2124525000108406,0.7,0,1,0.6428132500150241,0.2,0.7,0.5,105,372,2,3,1,best
135340,regret,13,3,0.5400565829477273,0.5,1,NA,NA,0.2,0.7,0.5,106,372,2,3,1,medium
135340,regret,14,1,0.8842517089797184,0.2,0,1,0.44703337497776374,0.2,0.7,0.5,106,372,2,3,1,worst
135340,regret,15,2,0.5647598330397159,0.7,0,1,0.5826383749954402,0.2,0.7,0.5,106,372,2,3,1,best
135340,regret,16,3,0.4374573749955744,0.5,1,NA,NA,0.2,0.7,0.5,107,372,2,3,1,medium
135340,regret,17,1,0.6954042079742067,0.2,0,1,0.8830775000387803,0.2,0.7,0.5,107,372,2,3,1,worst
135340,regret,18,2,0.5732030830113217,0.7,1,NA,NA,0.2,0.7,0.5,108,372,2,3,1,best
135340,regret,19,3,0.3799435830442235,0.5,0,1,1.0668737079831772,0.2,0.7,0.5,108,372,2,3,1,medium
135340,regret,20,3,0.4456018749624491,0.5,1,NA,NA,0.2,0.7,0.5,109,372,2,3,1,medium
135340,regret,21,2,0.9199141249991952,0.7,1,NA,NA,0.2,0.7,0.5,110,372,2,3,1,best
135340,regret,22,1,0.44531833298970014,0.2,0,1,2.4454438750399277,0.2,0.7,0.5,110,372,2,3,1,worst
135340,regret,23,1,0.638599791971501,0.2,0,1,0.6648994580027647,0.2,0.7,0.5,110,372,2,3,1,worst
135340,regret,24,3,0.42134716699365526,0.5,0,1,0.8421864160336554,0.2,0.7,0.5,110,372,2,3,1,medium
135340,regret,25,1,0.3155240420019254,0.2,0,1,0.48914033302571625,0.2,0.7,0.5,110,372,2,3,1,worst
135340,regret,26,2,0.5198866249993443,0.7,1,NA,NA,0.2,0.7,0.5,111,372,2,3,1,best
135340,regret,27,1,0.46352462499635294,0.2,0,1,0.6156065000104718,0.2,0.7,0.5,111,372,2,3,1,worst
135340,regret,28,2,0.351514583977405,0.7,1,NA,NA,0.2,0.7,0.5,112,372,2,3,1,best
135340,regret,29,2,0.4102580419857986,0.7,1,NA,NA,0.2,0.7,0.5,113,372,2,3,1,best
135340,regret,30,2,0.32042983296560124,0.7,0,1,0.7883965829969384,0.2,0.7,0.5,113,372,2,3,1,best
135340,regret,31,1,0.4639608329744078,0.2,0,NA,NA,0.2,0.7,0.5,113,372,2,3,1,worst
135340,regret,32,3,0.5413192909909412,0.5,1,NA,NA,0.2,0.7,0.5,114,372,2,3,1,medium
135340,regret,33,3,0.36777166702086106,0.5,1,NA,NA,0.2,0.7,0.5,115,372,2,3,1,medium
135340,regret,34,2,0.4162633749656379,0.7,1,NA,NA,0.2,0.7,0.5,116,372,2,3,1,best
135340,regret,35,1,0.5517395830247551,0.2,1,NA,NA,0.2,0.7,0.5,117,372,2,3,1,worst
135340,regret,36,3,0.40050575003260747,0.5,1,NA,NA,0.2,0.7,0.5,118,372,2,3,1,medium
135340,regret,37,2,0.4785952909733169,0.7,1,NA,NA,0.2,0.7,0.5,119,372,2,3,1,best
135340,regret,38,1,0.5333052499918267,0.2,0,NA,NA,0.2,0.7,0.5,119,372,2,3,1,worst
135340,regret,39,3,0.5181014999980107,0.5,1,NA,NA,0.2,0.7,0.5,120,372,2,3,1,medium
135340,regret,40,2,0.4515332080191002,0.7,1,NA,NA,0.2,0.7,0.5,121,372,2,3,1,best
135340,regret,41,1,0.5342813329771161,0.2,0,NA,NA,0.2,0.7,0.5,121,372,2,3,1,worst
135340,regret,42,2,0.34418099996400997,0.7,1,NA,NA,0.2,0.7,0.5,122,372,2,3,1,best
135340,regret,43,2,0.3458308330154978,0.7,1,NA,NA,0.2,0.7,0.5,123,372,2,3,1,best
135340,regret,44,1,0.31855654099490494,0.2,0,NA,NA,0.2,0.7,0.5,123,372,2,3,1,worst
135340,regret,45,3,0.5860069590271451,0.5,0,NA,NA,0.2,0.7,0.5,123,372,2,3,1,medium
135340,regret,46,1,0.5182772919652052,0.2,0,NA,NA,0.2,0.7,0.5,123,372,2,3,1,worst
135340,regret,47,2,0.3443417919916101,0.7,0,NA,NA,0.2,0.7,0.5,123,372,2,3,1,best
135340,regret,48,3,0.31820879195583984,0.5,1,NA,NA,0.2,0.7,0.5,124,372,2,3,1,medium
135340,regret,49,1,0.6049181660055183,0.2,0,NA,NA,0.2,0.7,0.5,124,372,2,3,1,worst
135340,regret,50,2,1.1326399170211516,0.7,1,NA,NA,0.2,0.7,0.5,125,372,2,3,1,best
135340,regret,51,3,0.5136312500108033,0.5,0,NA,NA,0.2,0.7,0.5,125,372,2,3,1,medium
135340,regret,52,1,0.4045322090387344,0.2,0,NA,NA,0.2,0.7,0.5,125,372,2,3,1,worst
135340,regret,53,1,0.5288479589507915,0.2,1,NA,NA,0.2,0.7,0.5,126,372,2,3,1,worst
135340,regret,54,3,0.3667490840307437,0.5,1,NA,NA,0.2,0.7,0.5,127,372,2,3,1,medium
135340,regret,55,1,0.33470429200679064,0.2,0,NA,NA,0.2,0.7,0.5,127,372,2,3,1,worst
135340,regret,56,3,0.31513620901387185,0.5,1,NA,NA,0.2,0.7,0.5,128,372,2,3,1,medium
135340,regret,57,2,0.563059542037081,0.7,1,NA,NA,0.2,0.7,0.5,129,372,2,3,1,best
135340,regret,58,2,0.2596224169828929,0.7,1,NA,NA,0.2,0.7,0.5,130,372,2,3,1,best
135340,regret,59,3,0.2871994160232134,0.5,0,NA,NA,0.2,0.7,0.5,130,372,2,3,1,medium
135340,regret,60,1,0.49387654196470976,0.2,0,NA,NA,0.2,0.7,0.5,130,372,2,3,1,worst
449380,regret,1,3,1.5215066249947995,0.7,1,NA,NA,0.5,0.2,0.7,131,372,3,1,2,best
449380,regret,2,2,2.0013942910009064,0.2,0,1,3.388185416988563,0.5,0.2,0.7,131,372,3,1,2,worst
449380,regret,3,1,0.8613877089810558,0.5,0,1,0.9013056670082732,0.5,0.2,0.7,131,372,3,1,2,medium
449380,regret,4,3,0.5513078749645501,0.7,0,1,0.8063667080132291,0.5,0.2,0.7,131,372,3,1,2,best
449380,regret,5,2,0.6036710000480525,0.2,0,1,1.2551163340103813,0.5,0.2,0.7,131,372,3,1,2,worst
449380,regret,6,1,0.5893729589879513,0.5,0,1,0.572793041006662,0.5,0.2,0.7,131,372,3,1,2,medium
449380,regret,7,3,0.5127924159751274,0.7,0,1,1.766763459017966,0.5,0.2,0.7,131,372,3,1,2,best
449380,regret,8,2,0.2795954159810208,0.2,0,1,0.988372125022579,0.5,0.2,0.7,131,372,3,1,2,worst
449380,regret,9,1,0.34917270799633116,0.5,1,NA,NA,0.5,0.2,0.7,132,372,3,1,2,medium
449380,regret,10,1,2.295119957998395,0.5,0,1,1.5422134579857811,0.5,0.2,0.7,132,372,3,1,2,medium
449380,regret,11,1,0.4503364579868503,0.5,1,NA,NA,0.5,0.2,0.7,133,372,3,1,2,medium
449380,regret,12,1,0.489601582987234,0.5,1,NA,NA,0.5,0.2,0.7,134,372,3,1,2,medium
449380,regret,13,1,0.33013358304742724,0.5,0,1,4.112800333008636,0.5,0.2,0.7,134,372,3,1,2,medium
449380,regret,14,1,1.1608768749865703,0.5,0,2,1.1699852920137346,0.5,0.2,0.7,134,372,3,1,2,medium
449380,regret,15,3,0.6881737089715898,0.7,1,NA,NA,0.5,0.2,0.7,135,372,3,1,2,best
449380,regret,16,3,0.34946599998511374,0.7,1,NA,NA,0.5,0.2,0.7,136,372,3,1,2,best
449380,regret,17,3,0.41322599997511134,0.7,1,NA,NA,0.5,0.2,0.7,137,372,3,1,2,best
449380,regret,18,3,0.33204000000841916,0.7,0,1,2.387552083004266,0.5,0.2,0.7,137,372,3,1,2,best
449380,regret,19,3,0.26886800001375377,0.7,1,NA,NA,0.5,0.2,0.7,138,372,3,1,2,best
449380,regret,20,3,0.2578731669927947,0.7,1,NA,NA,0.5,0.2,0.7,139,372,3,1,2,best
449380,regret,21,3,0.37600300001213327,0.7,0,1,2.1781612500199117,0.5,0.2,0.7,139,372,3,1,2,best
449380,regret,22,1,0.4963567079976201,0.5,1,NA,NA,0.5,0.2,0.7,140,372,3,1,2,medium
449380,regret,23,3,0.443929041037336,0.7,1,NA,NA,0.5,0.2,0.7,141,372,3,1,2,best
449380,regret,24,3,0.6518847499974072,0.7,1,NA,NA,0.5,0.2,0.7,142,372,3,1,2,best
449380,regret,25,3,0.36307712498819456,0.7,1,NA,NA,0.5,0.2,0.7,143,372,3,1,2,best
449380,regret,26,3,0.6646876250160858,0.7,1,NA,NA,0.5,0.2,0.7,144,372,3,1,2,best
449380,regret,27,3,0.6051377499825321,0.7,1,NA,NA,0.5,0.2,0.7,145,372,3,1,2,best
449380,regret,28,3,0.4765450839768164,0.7,1,NA,NA,0.5,0.2,0.7,146,372,3,1,2,best
449380,regret,29,3,0.5000349159818143,0.7,1,NA,NA,0.5,0.2,0.7,147,372,3,1,2,best
449380,regret,30,3,0.3403519169660285,0.7,0,1,1.95387554197805,0.5,0.2,0.7,147,372,3,1,2,best
449380,regret,31,2,0.3054294590256177,0.2,0,NA,NA,0.5,0.2,0.7,147,372,3,1,2,worst
449380,regret,32,2,2.204553042014595,0.2,0,NA,NA,0.5,0.2,0.7,147,372,3,1,2,worst
449380,regret,33,1,0.510509459010791,0.5,1,NA,NA,0.5,0.2,0.7,148,372,3,1,2,medium
449380,regret,34,1,0.5492882920079865,0.5,1,NA,NA,0.5,0.2,0.7,149,372,3,1,2,medium
449380,regret,35,1,0.4421647090348415,0.5,0,NA,NA,0.5,0.2,0.7,149,372,3,1,2,medium
449380,regret,36,3,0.28500083403196186,0.7,1,NA,NA,0.5,0.2,0.7,150,372,3,1,2,best
449380,regret,37,3,0.34588737500598654,0.7,0,NA,NA,0.5,0.2,0.7,150,372,3,1,2,best
449380,regret,38,3,0.2992639580043033,0.7,1,NA,NA,0.5,0.2,0.7,151,372,3,1,2,best
449380,regret,39,3,0.6279696669662371,0.7,1,NA,NA,0.5,0.2,0.7,152,372,3,1,2,best
449380,regret,40,3,0.4368901670095511,0.7,0,NA,NA,0.5,0.2,0.7,152,372,3,1,2,best
449380,regret,41,3,0.2515509169897996,0.7,1,NA,NA,0.5,0.2,0.7,153,372,3,1,2,best
449380,regret,42,3,0.30571874999441206,0.7,1,NA,NA,0.5,0.2,0.7,154,372,3,1,2,best
449380,regret,43,3,0.2677543329773471,0.7,1,NA,NA,0.5,0.2,0.7,155,372,3,1,2,best
449380,regret,44,3,0.3933849169989117,0.7,1,NA,NA,0.5,0.2,0.7,156,372,3,1,2,best
449380,regret,45,3,0.2881389170070179,0.7,1,NA,NA,0.5,0.2,0.7,157,372,3,1,2,best
449380,regret,46,3,0.25269491702783853,0.7,0,NA,NA,0.5,0.2,0.7,157,372,3,1,2,best
449380,regret,47,3,0.2671808750019409,0.7,1,NA,NA,0.5,0.2,0.7,158,372,3,1,2,best
449380,regret,48,3,0.2782362090074457,0.7,0,NA,NA,0.5,0.2,0.7,158,372,3,1,2,best
449380,regret,49,3,0.25936287496006116,0.7,1,NA,NA,0.5,0.2,0.7,159,372,3,1,2,best
449380,regret,50,3,0.26652754098176956,0.7,1,NA,NA,0.5,0.2,0.7,160,372,3,1,2,best
449380,regret,51,3,0.2549261249951087,0.7,1,NA,NA,0.5,0.2,0.7,161,372,3,1,2,best
449380,regret,52,3,0.39362400001846254,0.7,0,NA,NA,0.5,0.2,0.7,161,372,3,1,2,best
449380,regret,53,3,0.32156458299141377,0.7,0,NA,NA,0.5,0.2,0.7,161,372,3,1,2,best
449380,regret,54,3,0.37362645799294114,0.7,0,NA,NA,0.5,0.2,0.7,161,372,3,1,2,best
449380,regret,55,3,0.6695723329903558,0.7,1,NA,NA,0.5,0.2,0.7,162,372,3,1,2,best
449380,regret,56,3,0.30134620796889067,0.7,1,NA,NA,0.5,0.2,0.7,163,372,3,1,2,best
449380,regret,57,3,0.3446792910108343,0.7,1,NA,NA,0.5,0.2,0.7,164,372,3,1,2,best
449380,regret,58,3,0.32273108401568606,0.7,1,NA,NA,0.5,0.2,0.7,165,372,3,1,2,best
449380,regret,59,3,0.5114498750190251,0.7,1,NA,NA,0.5,0.2,0.7,166,372,3,1,2,best
449380,regret,60,3,0.3267961659585126,0.7,1,NA,NA,0.5,0.2,0.7,167,372,3,1,2,best
530972,regret,1,1,3.762804208963644,0.5,0,1,3.5973626670311205,0.5,0.2,0.7,167,372,3,1,2,medium
530972,regret,2,1,0.9983788749668748,0.5,1,NA,NA,0.5,0.2,0.7,168,372,3,1,2,medium
530972,regret,3,1,1.5910636250046082,0.5,0,1,1.4589120000018738,0.5,0.2,0.7,168,372,3,1,2,medium
530972,regret,4,1,0.7784395419876091,0.5,1,NA,NA,0.5,0.2,0.7,169,372,3,1,2,medium
530972,regret,5,1,1.5404434999800287,0.5,0,1,2.2513400000170805,0.5,0.2,0.7,169,372,3,1,2,medium
530972,regret,6,1,0.4758450830122456,0.5,0,2,1.826575250015594,0.5,0.2,0.7,169,372,3,1,2,medium
530972,regret,7,2,1.1004679579637011,0.2,0,1,0.5940376249491237,0.5,0.2,0.7,169,372,3,1,2,worst
530972,regret,8,2,0.6600991249433719,0.2,0,1,2.839038082980551,0.5,0.2,0.7,169,372,3,1,2,worst
530972,regret,9,2,0.6965684579918161,0.2,0,1,0.882573582988698,0.5,0.2,0.7,169,372,3,1,2,worst
530972,regret,10,3,0.6187819589977153,0.7,1,NA,NA,0.5,0.2,0.7,170,372,3,1,2,best
530972,regret,11,3,0.4296413330012001,0.7,0,1,0.3838334580068477,0.5,0.2,0.7,170,372,3,1,2,best
530972,regret,12,3,1.2361692499835044,0.7,1,NA,NA,0.5,0.2,0.7,171,372,3,1,2,best
530972,regret,13,3,0.963149290997535,0.7,1,NA,NA,0.5,0.2,0.7,172,372,3,1,2,best
530972,regret,14,3,0.6943255829974078,0.7,0,1,2.5952150839730166,0.5,0.2,0.7,172,372,3,1,2,best
530972,regret,15,3,0.6352834579884075,0.7,1,NA,NA,0.5,0.2,0.7,173,372,3,1,2,best
530972,regret,16,3,0.7706995419575833,0.7,1,NA,NA,0.5,0.2,0.7,174,372,3,1,2,best
530972,regret,17,3,0.77326924999943,0.7,1,NA,NA,0.5,0.2,0.7,175,372,3,1,2,best
530972,regret,18,3,0.6450182090047747,0.7,1,NA,NA,0.5,0.2,0.7,176,372,3,1,2,best
530972,regret,19,3,0.27748308301670477,0.7,1,NA,NA,0.5,0.2,0.7,177,372,3,1,2,best
530972,regret,20,3,0.35230733297066763,0.7,1,NA,NA,0.5,0.2,0.7,178,372,3,1,2,best
530972,regret,21,3,0.4884970420389436,0.7,1,NA,NA,0.5,0.2,0.7,179,372,3,1,2,best
530972,regret,22,3,0.621501374989748,0.7,1,NA,NA,0.5,0.2,0.7,180,372,3,1,2,best
530972,regret,23,3,0.2818626670050435,0.7,1,NA,NA,0.5,0.2,0.7,181,372,3,1,2,best
530972,regret,24,3,0.31233083299594,0.7,1,NA,NA,0.5,0.2,0.7,182,372,3,1,2,best
530972,regret,25,3,0.38682541699381545,0.7,0,1,2.480916582979262,0.5,0.2,0.7,182,372,3,1,2,best
530972,regret,26,3,1.2841779160080478,0.7,1,NA,NA,0.5,0.2,0.7,183,372,3,1,2,best
530972,regret,27,3,0.3856316669844091,0.7,1,NA,NA,0.5,0.2,0.7,184,372,3,1,2,best
530972,regret,28,3,0.33138008404057473,0.7,1,NA,NA,0.5,0.2,0.7,185,372,3,1,2,best
530972,regret,29,3,0.2837333329953253,0.7,1,NA,NA,0.5,0.2,0.7,186,372,3,1,2,best
530972,regret,30,3,0.41077029099687934,0.7,1,NA,NA,0.5,0.2,0.7,187,372,3,1,2,best
530972,regret,31,3,0.616695125005208,0.7,1,NA,NA,0.5,0.2,0.7,188,372,3,1,2,best
530972,regret,32,3,0.3907537079649046,0.7,0,NA,NA,0.5,0.2,0.7,188,372,3,1,2,best
530972,regret,33,3,1.6747550829895772,0.7,1,NA,NA,0.5,0.2,0.7,189,372,3,1,2,best
530972,regret,34,3,0.8524967919802293,0.7,1,NA,NA,0.5,0.2,0.7,190,372,3,1,2,best
530972,regret,35,3,0.4324635000084527,0.7,1,NA,NA,0.5,0.2,0.7,191,372,3,1,2,best
530972,regret,36,3,0.5726209999993443,0.7,1,NA,NA,0.5,0.2,0.7,192,372,3,1,2,best
530972,regret,37,3,0.8059810000122525,0.7,1,NA,NA,0.5,0.2,0.7,193,372,3,1,2,best
530972,regret,38,3,0.3890104999882169,0.7,1,NA,NA,0.5,0.2,0.7,194,372,3,1,2,best
530972,regret,39,3,0.43134725000709295,0.7,0,NA,NA,0.5,0.2,0.7,194,372,3,1,2,best
530972,regret,40,3,0.516007709025871,0.7,1,NA,NA,0.5,0.2,0.7,195,372,3,1,2,best
530972,regret,41,3,1.5663811669801362,0.7,1,NA,NA,0.5,0.2,0.7,196,372,3,1,2,best
530972,regret,42,3,0.4109849579981528,0.7,1,NA,NA,0.5,0.2,0.7,197,372,3,1,2,best
530972,regret,43,3,0.31152033305261284,0.7,1,NA,NA,0.5,0.2,0.7,198,372,3,1,2,best
530972,regret,44,3,0.5057960000121966,0.7,1,NA,NA,0.5,0.2,0.7,199,372,3,1,2,best
530972,regret,45,3,0.36025445896666497,0.7,0,NA,NA,0.5,0.2,0.7,199,372,3,1,2,best
530972,regret,46,3,0.6072151659755036,0.7,1,NA,NA,0.5,0.2,0.7,200,372,3,1,2,best
530972,regret,47,3,0.32722625002497807,0.7,1,NA,NA,0.5,0.2,0.7,201,372,3,1,2,best
530972,regret,48,3,0.3531776659656316,0.7,0,NA,NA,0.5,0.2,0.7,201,372,3,1,2,best
530972,regret,49,3,1.5952908330364153,0.7,1,NA,NA,0.5,0.2,0.7,202,372,3,1,2,best
530972,regret,50,3,0.3691137920250185,0.7,1,NA,NA,0.5,0.2,0.7,203,372,3,1,2,best
530972,regret,51,3,0.3309444590122439,0.7,0,NA,NA,0.5,0.2,0.7,203,372,3,1,2,best
530972,regret,52,3,0.9471757090068422,0.7,0,NA,NA,0.5,0.2,0.7,203,372,3,1,2,best
530972,regret,53,3,0.4041042919852771,0.7,0,NA,NA,0.5,0.2,0.7,203,372,3,1,2,best
530972,regret,54,2,0.5110707920393907,0.2,0,NA,NA,0.5,0.2,0.7,203,372,3,1,2,worst
530972,regret,55,2,0.34371595800621435,0.2,0,NA,NA,0.5,0.2,0.7,203,372,3,1,2,worst
530972,regret,56,2,0.630036583985202,0.2,0,NA,NA,0.5,0.2,0.7,203,372,3,1,2,worst
530972,regret,57,1,0.3270700839930214,0.5,1,NA,NA,0.5,0.2,0.7,204,372,3,1,2,medium
530972,regret,58,1,0.34589400002732873,0.5,1,NA,NA,0.5,0.2,0.7,205,372,3,1,2,medium
530972,regret,59,1,0.27740458300104365,0.5,1,NA,NA,0.5,0.2,0.7,206,372,3,1,2,medium
530972,regret,60,1,0.4115132500301115,0.5,1,NA,NA,0.5,0.2,0.7,207,372,3,1,2,medium
578066,regret,1,2,1.0728031669859774,0.7,1,NA,NA,0.5,0.7,0.2,208,372,2,1,3,best
578066,regret,2,3,1.0211111250100655,0.2,1,NA,NA,0.5,0.7,0.2,209,372,2,1,3,worst
578066,regret,3,2,0.403889250010252,0.7,1,NA,NA,0.5,0.7,0.2,210,372,2,1,3,best
578066,regret,4,1,0.3143427079776302,0.5,1,NA,NA,0.5,0.7,0.2,211,372,2,1,3,medium
578066,regret,5,3,0.30057487497106194,0.2,0,2,0.6147015420137905,0.5,0.7,0.2,211,372,2,1,3,worst
578066,regret,6,1,0.6712268330156803,0.5,0,2,0.9642341670114548,0.5,0.7,0.2,211,372,2,1,3,medium
578066,regret,7,3,0.6448686250369065,0.2,0,2,4.566456665983424,0.5,0.7,0.2,211,372,2,1,3,worst
578066,regret,8,2,0.37670691596576944,0.7,0,2,0.34195466700475663,0.5,0.7,0.2,211,372,2,1,3,best
578066,regret,9,1,0.3154067089781165,0.5,1,NA,NA,0.5,0.7,0.2,212,372,2,1,3,medium
578066,regret,10,1,0.31812479201471433,0.5,1,NA,NA,0.5,0.7,0.2,213,372,2,1,3,medium
578066,regret,11,1,0.4021124580176547,0.5,0,3,0.44247962499503046,0.5,0.7,0.2,213,372,2,1,3,medium
578066,regret,12,3,0.4062559169833549,0.2,0,3,0.3284511669771746,0.5,0.7,0.2,213,372,2,1,3,worst
578066,regret,13,2,0.4804472919786349,0.7,1,NA,NA,0.5,0.7,0.2,214,372,2,1,3,best
578066,regret,14,3,0.30217941699083894,0.2,0,3,0.3072922910214402,0.5,0.7,0.2,214,372,2,1,3,worst
578066,regret,15,1,0.4382627499871887,0.5,0,3,0.33890479104593396,0.5,0.7,0.2,214,372,2,1,3,medium
578066,regret,16,3,0.3755125410389155,0.2,0,3,0.5832038330263458,0.5,0.7,0.2,214,372,2,1,3,worst
578066,regret,17,2,0.32807854196289554,0.7,1,NA,NA,0.5,0.7,0.2,215,372,2,1,3,best
578066,regret,18,2,0.35334379196865484,0.7,1,NA,NA,0.5,0.7,0.2,216,372,2,1,3,best
578066,regret,19,2,0.3226776249939576,0.7,0,3,0.36587070900714025,0.5,0.7,0.2,216,372,2,1,3,best
578066,regret,20,1,0.3453789160121232,0.5,1,NA,NA,0.5,0.7,0.2,217,372,2,1,3,medium
578066,regret,21,1,0.32023037504404783,0.5,1,NA,NA,0.5,0.7,0.2,218,372,2,1,3,medium
578066,regret,22,3,0.37930287496419623,0.2,0,3,0.5105757499695756,0.5,0.7,0.2,218,372,2,1,3,worst
578066,regret,23,2,0.3346487089875154,0.7,0,2,0.40035199996782467,0.5,0.7,0.2,218,372,2,1,3,best
578066,regret,24,2,3.328706916014198,0.7,1,NA,NA,0.5,0.7,0.2,219,372,2,1,3,best
578066,regret,25,1,0.4440409590024501,0.5,0,3,0.6992659170064144,0.5,0.7,0.2,219,372,2,1,3,medium
578066,regret,26,3,3.1867955420166254,0.2,0,3,0.48661079205339774,0.5,0.7,0.2,219,372,2,1,3,worst
578066,regret,27,1,0.32435516704572365,0.5,1,NA,NA,0.5,0.7,0.2,220,372,2,1,3,medium
578066,regret,28,1,0.263088500010781,0.5,1,NA,NA,0.5,0.7,0.2,221,372,2,1,3,medium
578066,regret,29,1,0.31566983298398554,0.5,1,NA,NA,0.5,0.7,0.2,222,372,2,1,3,medium
578066,regret,30,1,0.28625920799095184,0.5,0,3,0.3868810419808142,0.5,0.7,0.2,222,372,2,1,3,medium
578066,regret,31,2,0.7230367499869317,0.7,0,NA,NA,0.5,0.7,0.2,222,372,2,1,3,best
578066,regret,32,3,0.915430249995552,0.2,0,NA,NA,0.5,0.7,0.2,222,372,2,1,3,worst
578066,regret,33,1,0.377851166005712,0.5,0,NA,NA,0.5,0.7,0.2,222,372,2,1,3,medium
578066,regret,34,3,0.26362966699525714,0.2,0,NA,NA,0.5,0.7,0.2,222,372,2,1,3,worst
578066,regret,35,2,0.2774474160396494,0.7,0,NA,NA,0.5,0.7,0.2,222,372,2,1,3,best
578066,regret,36,1,0.3142066660220735,0.5,1,NA,NA,0.5,0.7,0.2,223,372,2,1,3,medium
578066,regret,37,1,0.27702262497041374,0.5,0,NA,NA,0.5,0.7,0.2,223,372,2,1,3,medium
578066,regret,38,2,0.33732233301270753,0.7,0,NA,NA,0.5,0.7,0.2,223,372,2,1,3,best
578066,regret,39,2,0.3187723750015721,0.7,1,NA,NA,0.5,0.7,0.2,224,372,2,1,3,best
578066,regret,40,3,0.295491042023059,0.2,0,NA,NA,0.5,0.7,0.2,224,372,2,1,3,worst
578066,regret,41,3,0.3958502499735914,0.2,1,NA,NA,0.5,0.7,0.2,225,372,2,1,3,worst
578066,regret,42,3,0.31242620799457654,0.2,0,NA,NA,0.5,0.7,0.2,225,372,2,1,3,worst
578066,regret,43,2,0.3652620000066236,0.7,1,NA,NA,0.5,0.7,0.2,226,372,2,1,3,best
578066,regret,44,2,0.5359818750293925,0.7,1,NA,NA,0.5,0.7,0.2,227,372,2,1,3,best
578066,regret,45,2,0.39431558398064226,0.7,0,NA,NA,0.5,0.7,0.2,227,372,2,1,3,best
578066,regret,46,1,0.31159050000132993,0.5,1,NA,NA,0.5,0.7,0.2,228,372,2,1,3,medium
578066,regret,47,1,0.34708570898510516,0.5,0,NA,NA,0.5,0.7,0.2,228,372,2,1,3,medium
578066,regret,48,3,0.2686442089616321,0.2,0,NA,NA,0.5,0.7,0.2,228,372,2,1,3,worst
578066,regret,49,2,0.2669752499787137,0.7,0,NA,NA,0.5,0.7,0.2,228,372,2,1,3,best
578066,regret,50,1,0.3507016249932349,0.5,0,NA,NA,0.5,0.7,0.2,228,372,2,1,3,medium
578066,regret,51,3,0.27165841596433893,0.2,0,NA,NA,0.5,0.7,0.2,228,372,2,1,3,worst
578066,regret,52,2,0.2596106660203077,0.7,0,NA,NA,0.5,0.7,0.2,228,372,2,1,3,best
578066,regret,53,1,0.5234972920152359,0.5,0,NA,NA,0.5,0.7,0.2,228,372,2,1,3,medium
578066,regret,54,3,0.3183339170063846,0.2,1,NA,NA,0.5,0.7,0.2,229,372,2,1,3,worst
578066,regret,55,3,0.29478458303492516,0.2,0,NA,NA,0.5,0.7,0.2,229,372,2,1,3,worst
578066,regret,56,2,0.26805020798929036,0.7,1,NA,NA,0.5,0.7,0.2,230,372,2,1,3,best
578066,regret,57,2,0.32168495800578967,0.7,1,NA,NA,0.5,0.7,0.2,231,372,2,1,3,best
578066,regret,58,2,0.13244454195955768,0.7,1,NA,NA,0.5,0.7,0.2,232,372,2,1,3,best
578066,regret,59,2,0.23479520803084597,0.7,0,NA,NA,0.5,0.7,0.2,232,372,2,1,3,best
578066,regret,60,1,0.2626634160405956,0.5,0,NA,NA,0.5,0.7,0.2,232,372,2,1,3,medium
734722,regret,1,1,0.8438512079992506,0.2,0,1,5.9572112080004445,0.2,0.5,0.7,232,372,3,2,1,worst
734722,regret,2,1,0.7944449589995202,0.2,0,2,1.002770540999336,0.2,0.5,0.7,232,372,3,2,1,worst
734722,regret,3,2,0.29092208399924857,0.5,0,1,0.6355881660001614,0.2,0.5,0.7,232,372,3,2,1,medium
734722,regret,4,3,0.2857465000015509,0.7,0,1,0.3158551670003362,0.2,0.5,0.7,232,372,3,2,1,best
734722,regret,5,2,0.5242187080002623,0.5,1,NA,NA,0.2,0.5,0.7,233,372,3,2,1,medium
734722,regret,6,2,0.3762119999992138,0.5,0,2,1.161594375000277,0.2,0.5,0.7,233,372,3,2,1,medium
734722,regret,7,3,0.4245997500001977,0.7,0,2,1.5851413330001378,0.2,0.5,0.7,233,372,3,2,1,best
734722,regret,8,2,0.3010864589996345,0.5,0,2,0.9548017920005804,0.2,0.5,0.7,233,372,3,2,1,medium
734722,regret,9,3,0.4626879159986856,0.7,0,2,0.918137167000168,0.2,0.5,0.7,233,372,3,2,1,best
734722,regret,10,2,0.4968870000011521,0.5,0,3,0.8225719170004595,0.2,0.5,0.7,233,372,3,2,1,medium
734722,regret,11,3,1.261500333001095,0.7,1,NA,NA,0.2,0.5,0.7,234,372,3,2,1,best
734722,regret,12,3,0.32096241600083886,0.7,1,NA,NA,0.2,0.5,0.7,235,372,3,2,1,best
734722,regret,13,3,0.2526377499998489,0.7,1,NA,NA,0.2,0.5,0.7,236,372,3,2,1,best
734722,regret,14,3,0.5143104999988282,0.7,1,NA,NA,0.2,0.5,0.7,237,372,3,2,1,best
734722,regret,15,3,0.31774166700051865,0.7,0,2,1.7443598749996454,0.2,0.5,0.7,237,372,3,2,1,best
734722,regret,16,3,0.562156457999663,0.7,1,NA,NA,0.2,0.5,0.7,238,372,3,2,1,best
734722,regret,17,3,0.28929387499920267,0.7,0,2,2.6469624590008607,0.2,0.5,0.7,238,372,3,2,1,best
734722,regret,18,3,0.6025778750008612,0.7,1,NA,NA,0.2,0.5,0.7,239,372,3,2,1,best
734722,regret,19,2,0.6198137079991284,0.5,1,NA,NA,0.2,0.5,0.7,240,372,3,2,1,medium
734722,regret,20,2,0.3044857079985377,0.5,1,NA,NA,0.2,0.5,0.7,241,372,3,2,1,medium
734722,regret,21,2,0.37419266600045376,0.5,0,1,0.9300150839990238,0.2,0.5,0.7,241,372,3,2,1,medium
734722,regret,22,2,0.29464083300081256,0.5,1,NA,NA,0.2,0.5,0.7,242,372,3,2,1,medium
734722,regret,23,2,0.29799741599890694,0.5,0,2,1.2371036659988022,0.2,0.5,0.7,242,372,3,2,1,medium
734722,regret,24,3,0.777640166999845,0.7,1,NA,NA,0.2,0.5,0.7,243,372,3,2,1,best
734722,regret,25,3,0.28601295900080004,0.7,1,NA,NA,0.2,0.5,0.7,244,372,3,2,1,best
734722,regret,26,3,0.2880850410001585,0.7,1,NA,NA,0.2,0.5,0.7,245,372,3,2,1,best
734722,regret,27,3,0.2813203749992681,0.7,1,NA,NA,0.2,0.5,0.7,246,372,3,2,1,best
734722,regret,28,3,0.24081870900045033,0.7,0,1,1.4337138339997182,0.2,0.5,0.7,246,372,3,2,1,best
734722,regret,29,2,0.3341449580002518,0.5,0,3,1.721305332999691,0.2,0.5,0.7,246,372,3,2,1,medium
734722,regret,30,3,0.3787167500013311,0.7,1,NA,NA,0.2,0.5,0.7,247,372,3,2,1,best
734722,regret,31,3,0.32229787500000384,0.7,1,NA,NA,0.2,0.5,0.7,248,372,3,2,1,best
734722,regret,32,3,0.2916012080004293,0.7,0,NA,NA,0.2,0.5,0.7,248,372,3,2,1,best
734722,regret,33,3,0.38051766699936707,0.7,1,NA,NA,0.2,0.5,0.7,249,372,3,2,1,best
734722,regret,34,3,0.2340355840005941,0.7,1,NA,NA,0.2,0.5,0.7,250,372,3,2,1,best
734722,regret,35,3,0.2459107499998936,0.7,1,NA,NA,0.2,0.5,0.7,251,372,3,2,1,best
734722,regret,36,3,0.2813861669983453,0.7,1,NA,NA,0.2,0.5,0.7,252,372,3,2,1,best
734722,regret,37,3,0.3963519160006399,0.7,1,NA,NA,0.2,0.5,0.7,253,372,3,2,1,best
734722,regret,38,3,0.5266832080014865,0.7,0,NA,NA,0.2,0.5,0.7,253,372,3,2,1,best
734722,regret,39,3,0.37270695799998066,0.7,1,NA,NA,0.2,0.5,0.7,254,372,3,2,1,best
734722,regret,40,3,0.22779116700075977,0.7,1,NA,NA,0.2,0.5,0.7,255,372,3,2,1,best
734722,regret,41,3,0.23653579199890373,0.7,0,NA,NA,0.2,0.5,0.7,255,372,3,2,1,best
734722,regret,42,3,0.48246583299987833,0.7,0,NA,NA,0.2,0.5,0.7,255,372,3,2,1,best
734722,regret,43,3,0.2869852080002602,0.7,0,NA,NA,0.2,0.5,0.7,255,372,3,2,1,best
734722,regret,44,3,0.2520230000009178,0.7,1,NA,NA,0.2,0.5,0.7,256,372,3,2,1,best
734722,regret,45,3,0.3029727080011071,0.7,1,NA,NA,0.2,0.5,0.7,257,372,3,2,1,best
734722,regret,46,3,0.37248591699972167,0.7,0,NA,NA,0.2,0.5,0.7,257,372,3,2,1,best
734722,regret,47,3,0.2690769579985499,0.7,1,NA,NA,0.2,0.5,0.7,258,372,3,2,1,best
734722,regret,48,3,0.2590344999989611,0.7,1,NA,NA,0.2,0.5,0.7,259,372,3,2,1,best
734722,regret,49,3,0.21908012499989127,0.7,1,NA,NA,0.2,0.5,0.7,260,372,3,2,1,best
734722,regret,50,3,0.2368531249994703,0.7,1,NA,NA,0.2,0.5,0.7,261,372,3,2,1,best
734722,regret,51,3,0.23017574999903445,0.7,1,NA,NA,0.2,0.5,0.7,262,372,3,2,1,best
734722,regret,52,3,0.36722275000101945,0.7,1,NA,NA,0.2,0.5,0.7,263,372,3,2,1,best
734722,regret,53,3,0.3199926670004061,0.7,0,NA,NA,0.2,0.5,0.7,263,372,3,2,1,best
734722,regret,54,3,0.3306912080006441,0.7,1,NA,NA,0.2,0.5,0.7,264,372,3,2,1,best
734722,regret,55,3,0.28855858300084947,0.7,1,NA,NA,0.2,0.5,0.7,265,372,3,2,1,best
734722,regret,56,1,0.284353540999291,0.2,1,NA,NA,0.2,0.5,0.7,266,372,3,2,1,worst
734722,regret,57,1,0.2887310410005739,0.2,1,NA,NA,0.2,0.5,0.7,267,372,3,2,1,worst
734722,regret,58,1,0.38800104199981433,0.2,1,NA,NA,0.2,0.5,0.7,268,372,3,2,1,worst
734722,regret,59,1,0.26908245799859287,0.2,0,NA,NA,0.2,0.5,0.7,268,372,3,2,1,worst
734722,regret,60,1,0.32206904200029385,0.2,0,NA,NA,0.2,0.5,0.7,268,372,3,2,1,worst
744341,regret,1,1,1.122434958000099,0.5,0,1,3.2963942500000485,0.5,0.2,0.7,268,372,3,1,2,medium
744341,regret,2,2,0.6560607499999378,0.2,0,1,1.214097250000009,0.5,0.2,0.7,268,372,3,1,2,worst
744341,regret,3,3,0.4585187080000423,0.7,0,1,0.43427362500005984,0.5,0.2,0.7,268,372,3,1,2,best
744341,regret,4,1,0.6403245830000515,0.5,1,NA,NA,0.5,0.2,0.7,269,372,3,1,2,medium
744341,regret,5,1,0.4641542079999681,0.5,0,2,0.4961046250000436,0.5,0.2,0.7,269,372,3,1,2,medium
744341,regret,6,2,0.5718209999999999,0.2,0,1,0.2737172920000148,0.5,0.2,0.7,269,372,3,1,2,worst
744341,regret,7,3,0.3222915840000269,0.7,1,NA,NA,0.5,0.2,0.7,270,372,3,1,2,best
744341,regret,8,3,0.5004080410000142,0.7,1,NA,NA,0.5,0.2,0.7,271,372,3,1,2,best
744341,regret,9,3,0.35200562499994703,0.7,0,2,1.188732707999975,0.5,0.2,0.7,271,372,3,1,2,best
744341,regret,10,3,0.46200070800000503,0.7,0,2,0.3341220830000111,0.5,0.2,0.7,271,372,3,1,2,best
744341,regret,11,1,0.2841537499999731,0.5,1,NA,NA,0.5,0.2,0.7,272,372,3,1,2,medium
744341,regret,12,1,0.3073660000000018,0.5,0,2,0.5132781670000668,0.5,0.2,0.7,272,372,3,1,2,medium
744341,regret,13,3,0.27827158299999155,0.7,1,NA,NA,0.5,0.2,0.7,273,372,3,1,2,best
744341,regret,14,3,0.3262950419999697,0.7,1,NA,NA,0.5,0.2,0.7,274,372,3,1,2,best
744341,regret,15,3,0.388221041999941,0.7,1,NA,NA,0.5,0.2,0.7,275,372,3,1,2,best
744341,regret,16,3,0.2799091659999249,0.7,1,NA,NA,0.5,0.2,0.7,276,372,3,1,2,best
744341,regret,17,3,0.21097537499997543,0.7,1,NA,NA,0.5,0.2,0.7,277,372,3,1,2,best
744341,regret,18,3,0.27267333400004645,0.7,1,NA,NA,0.5,0.2,0.7,278,372,3,1,2,best
744341,regret,19,3,0.2569817080000121,0.7,0,1,1.9883665419999943,0.5,0.2,0.7,278,372,3,1,2,best
744341,regret,20,3,0.2257735420000699,0.7,1,NA,NA,0.5,0.2,0.7,279,372,3,1,2,best
744341,regret,21,3,0.2525401670000065,0.7,1,NA,NA,0.5,0.2,0.7,280,372,3,1,2,best
744341,regret,22,1,0.31255754200003594,0.5,0,3,0.4188792500000318,0.5,0.2,0.7,280,372,3,1,2,medium
744341,regret,23,2,0.28231208299996524,0.2,1,NA,NA,0.5,0.2,0.7,281,372,3,1,2,worst
744341,regret,24,2,0.2537940409999919,0.2,0,2,0.37599487500006035,0.5,0.2,0.7,281,372,3,1,2,worst
744341,regret,25,2,0.28174758300008307,0.2,0,3,0.8003409579999925,0.5,0.2,0.7,281,372,3,1,2,worst
744341,regret,26,1,0.2710572500000126,0.5,1,NA,NA,0.5,0.2,0.7,282,372,3,1,2,medium
744341,regret,27,1,0.31726195800001733,0.5,0,2,0.9246089999999184,0.5,0.2,0.7,282,372,3,1,2,medium
744341,regret,28,1,0.2960365000000138,0.5,1,NA,NA,0.5,0.2,0.7,283,372,3,1,2,medium
744341,regret,29,1,0.3704482079999707,0.5,0,2,0.25559020900004725,0.5,0.2,0.7,283,372,3,1,2,medium
744341,regret,30,3,0.25543991600000027,0.7,1,NA,NA,0.5,0.2,0.7,284,372,3,1,2,best
744341,regret,31,3,0.3982750000000124,0.7,1,NA,NA,0.5,0.2,0.7,285,372,3,1,2,best
744341,regret,32,3,0.2931209590000208,0.7,1,NA,NA,0.5,0.2,0.7,286,372,3,1,2,best
744341,regret,33,3,0.35458666700003505,0.7,1,NA,NA,0.5,0.2,0.7,287,372,3,1,2,best
744341,regret,34,3,0.2362398329998996,0.7,0,NA,NA,0.5,0.2,0.7,287,372,3,1,2,best
744341,regret,35,3,0.24564495799995711,0.7,1,NA,NA,0.5,0.2,0.7,288,372,3,1,2,best
744341,regret,36,3,0.2859789159999764,0.7,1,NA,NA,0.5,0.2,0.7,289,372,3,1,2,best
744341,regret,37,3,0.2410047079999913,0.7,0,NA,NA,0.5,0.2,0.7,289,372,3,1,2,best
744341,regret,38,3,0.2481031250000569,0.7,1,NA,NA,0.5,0.2,0.7,290,372,3,1,2,best
744341,regret,39,3,0.02113133299997116,0.7,1,NA,NA,0.5,0.2,0.7,291,372,3,1,2,best
744341,regret,40,3,0.3497266669999135,0.7,0,NA,NA,0.5,0.2,0.7,291,372,3,1,2,best
744341,regret,41,1,0.2526114999999436,0.5,1,NA,NA,0.5,0.2,0.7,292,372,3,1,2,medium
744341,regret,42,1,0.2441884579999396,0.5,0,NA,NA,0.5,0.2,0.7,292,372,3,1,2,medium
744341,regret,43,3,0.4644768749999457,0.7,1,NA,NA,0.5,0.2,0.7,293,372,3,1,2,best
744341,regret,44,3,0.1992160000000922,0.7,1,NA,NA,0.5,0.2,0.7,294,372,3,1,2,best
744341,regret,45,3,0.23628216700001303,0.7,1,NA,NA,0.5,0.2,0.7,295,372,3,1,2,best
744341,regret,46,3,0.2359990420000031,0.7,1,NA,NA,0.5,0.2,0.7,296,372,3,1,2,best
744341,regret,47,3,0.2475256249999802,0.7,1,NA,NA,0.5,0.2,0.7,297,372,3,1,2,best
744341,regret,48,3,0.2392250000000331,0.7,1,NA,NA,0.5,0.2,0.7,298,372,3,1,2,best
744341,regret,49,3,0.2450422910000043,0.7,1,NA,NA,0.5,0.2,0.7,299,372,3,1,2,best
744341,regret,50,3,0.20531333300004917,0.7,1,NA,NA,0.5,0.2,0.7,300,372,3,1,2,best
744341,regret,51,3,0.219228375000057,0.7,1,NA,NA,0.5,0.2,0.7,301,372,3,1,2,best
744341,regret,52,3,0.21849495900005425,0.7,1,NA,NA,0.5,0.2,0.7,302,372,3,1,2,best
744341,regret,53,3,0.5183435410000357,0.7,0,NA,NA,0.5,0.2,0.7,302,372,3,1,2,best
744341,regret,54,3,0.2190280419999908,0.7,0,NA,NA,0.5,0.2,0.7,302,372,3,1,2,best
744341,regret,55,1,0.2242572500000506,0.5,0,NA,NA,0.5,0.2,0.7,302,372,3,1,2,medium
744341,regret,56,3,0.2413692909999554,0.7,0,NA,NA,0.5,0.2,0.7,302,372,3,1,2,best
744341,regret,57,3,0.2133352500000001,0.7,1,NA,NA,0.5,0.2,0.7,303,372,3,1,2,best
744341,regret,58,3,0.1720732079999152,0.7,1,NA,NA,0.5,0.2,0.7,304,372,3,1,2,best
744341,regret,59,3,0.19744220899997345,0.7,0,NA,NA,0.5,0.2,0.7,304,372,3,1,2,best
744341,regret,60,3,0.1976170830000683,0.7,1,NA,NA,0.5,0.2,0.7,305,372,3,1,2,best
897793,regret,1,2,1.110123208956793,0.2,0,2,1.5899235830293037,0.5,0.2,0.7,305,372,3,1,2,worst
897793,regret,2,1,1.3437886249739677,0.5,1,NA,NA,0.5,0.2,0.7,306,372,3,1,2,medium
897793,regret,3,1,0.3784902500337921,0.5,1,NA,NA,0.5,0.2,0.7,307,372,3,1,2,medium
897793,regret,4,1,0.34151691698934883,0.5,0,2,2.2099737499956973,0.5,0.2,0.7,307,372,3,1,2,medium
897793,regret,5,1,0.928210375015624,0.5,0,3,0.40178575000027195,0.5,0.2,0.7,307,372,3,1,2,medium
897793,regret,6,2,0.7621792919817381,0.2,0,3,1.2988396249711514,0.5,0.2,0.7,307,372,3,1,2,worst
897793,regret,7,3,0.31291158398380503,0.7,1,NA,NA,0.5,0.2,0.7,308,372,3,1,2,best
897793,regret,8,3,0.30209804198239,0.7,1,NA,NA,0.5,0.2,0.7,309,372,3,1,2,best
897793,regret,9,3,0.4349007499986328,0.7,1,NA,NA,0.5,0.2,0.7,310,372,3,1,2,best
897793,regret,10,3,0.6480900829774328,0.7,1,NA,NA,0.5,0.2,0.7,311,372,3,1,2,best
897793,regret,11,3,0.3884014160139486,0.7,0,1,0.3709393340395763,0.5,0.2,0.7,311,372,3,1,2,best
897793,regret,12,1,0.5520386249991134,0.5,0,2,0.5022640830138698,0.5,0.2,0.7,311,372,3,1,2,medium
897793,regret,13,3,1.6656432920135558,0.7,0,2,0.3245480000041425,0.5,0.2,0.7,311,372,3,1,2,best
897793,regret,14,2,0.8027040419983678,0.2,0,1,1.509525000001304,0.5,0.2,0.7,311,372,3,1,2,worst
897793,regret,15,1,0.6965002499637194,0.5,0,3,0.924758541979827,0.5,0.2,0.7,311,372,3,1,2,medium
897793,regret,16,2,0.5647416670108214,0.2,0,3,2.023950083006639,0.5,0.2,0.7,311,372,3,1,2,worst
897793,regret,17,3,0.5374524170183577,0.7,0,3,0.6509756660088897,0.5,0.2,0.7,311,372,3,1,2,best
897793,regret,18,2,1.6029151660040952,0.2,0,3,1.2167423749924635,0.5,0.2,0.7,311,372,3,1,2,worst
897793,regret,19,1,0.4102231250144541,0.5,1,NA,NA,0.5,0.2,0.7,312,372,3,1,2,medium
897793,regret,20,1,0.23924479202833027,0.5,0,3,1.4283558340393938,0.5,0.2,0.7,312,372,3,1,2,medium
897793,regret,21,3,0.675381291017402,0.7,1,NA,NA,0.5,0.2,0.7,313,372,3,1,2,best
897793,regret,22,3,0.33494162501301616,0.7,1,NA,NA,0.5,0.2,0.7,314,372,3,1,2,best
897793,regret,23,3,0.3301902919774875,0.7,0,2,1.685124583018478,0.5,0.2,0.7,314,372,3,1,2,best
897793,regret,24,1,4.530213457997888,0.5,1,NA,NA,0.5,0.2,0.7,315,372,3,1,2,medium
897793,regret,25,1,0.7016590419807471,0.5,1,NA,NA,0.5,0.2,0.7,316,372,3,1,2,medium
897793,regret,26,1,0.2619881669525057,0.5,0,2,0.998340249992907,0.5,0.2,0.7,316,372,3,1,2,medium
897793,regret,27,3,0.26463399996282533,0.7,0,2,2.4474477079929784,0.5,0.2,0.7,316,372,3,1,2,best
897793,regret,28,1,0.8666829579742625,0.5,1,NA,NA,0.5,0.2,0.7,317,372,3,1,2,medium
897793,regret,29,1,0.3275979579775594,0.5,0,3,0.23712549998890609,0.5,0.2,0.7,317,372,3,1,2,medium
897793,regret,30,3,0.26230170897906646,0.7,1,NA,NA,0.5,0.2,0.7,318,372,3,1,2,best
897793,regret,31,3,0.715966583986301,0.7,0,NA,NA,0.5,0.2,0.7,318,372,3,1,2,best
897793,regret,32,1,0.2950637500034645,0.5,1,NA,NA,0.5,0.2,0.7,319,372,3,1,2,medium
897793,regret,33,1,0.594938958005514,0.5,0,NA,NA,0.5,0.2,0.7,319,372,3,1,2,medium
897793,regret,34,3,0.24992095801280811,0.7,1,NA,NA,0.5,0.2,0.7,320,372,3,1,2,best
897793,regret,35,1,0.5279316250234842,0.5,1,NA,NA,0.5,0.2,0.7,321,372,3,1,2,medium
897793,regret,36,3,0.6958836659905501,0.7,1,NA,NA,0.5,0.2,0.7,322,372,3,1,2,best
897793,regret,37,1,0.2698913750355132,0.5,0,NA,NA,0.5,0.2,0.7,322,372,3,1,2,medium
897793,regret,38,3,0.244385041994974,0.7,1,NA,NA,0.5,0.2,0.7,323,372,3,1,2,best
897793,regret,39,3,0.2322993330308236,0.7,0,NA,NA,0.5,0.2,0.7,323,372,3,1,2,best
897793,regret,40,1,0.29485537501750514,0.5,1,NA,NA,0.5,0.2,0.7,324,372,3,1,2,medium
897793,regret,41,1,0.23540641699219125,0.5,1,NA,NA,0.5,0.2,0.7,325,372,3,1,2,medium
897793,regret,42,1,0.4472167920321226,0.5,1,NA,NA,0.5,0.2,0.7,326,372,3,1,2,medium
897793,regret,43,1,0.3736126250005327,0.5,1,NA,NA,0.5,0.2,0.7,327,372,3,1,2,medium
897793,regret,44,1,0.5195127920014784,0.5,1,NA,NA,0.5,0.2,0.7,328,372,3,1,2,medium
897793,regret,45,1,0.4099851659848355,0.5,1,NA,NA,0.5,0.2,0.7,329,372,3,1,2,medium
897793,regret,46,1,0.2568709579645656,0.5,1,NA,NA,0.5,0.2,0.7,330,372,3,1,2,medium
897793,regret,47,1,0.7649172500241548,0.5,1,NA,NA,0.5,0.2,0.7,331,372,3,1,2,medium
897793,regret,48,1,0.3268405420240015,0.5,0,NA,NA,0.5,0.2,0.7,331,372,3,1,2,medium
897793,regret,49,3,0.37897483399137855,0.7,1,NA,NA,0.5,0.2,0.7,332,372,3,1,2,best
897793,regret,50,1,0.5357409170246683,0.5,0,NA,NA,0.5,0.2,0.7,332,372,3,1,2,medium
897793,regret,51,3,0.4740052919951267,0.7,1,NA,NA,0.5,0.2,0.7,333,372,3,1,2,best
897793,regret,52,1,0.377408166998066,0.5,0,NA,NA,0.5,0.2,0.7,333,372,3,1,2,medium
897793,regret,53,3,0.2809865410090424,0.7,0,NA,NA,0.5,0.2,0.7,333,372,3,1,2,best
897793,regret,54,1,0.36372020904673263,0.5,1,NA,NA,0.5,0.2,0.7,334,372,3,1,2,medium
897793,regret,55,1,0.23785691702505576,0.5,1,NA,NA,0.5,0.2,0.7,335,372,3,1,2,medium
897793,regret,56,1,0.39598575001582503,0.5,0,NA,NA,0.5,0.2,0.7,335,372,3,1,2,medium
897793,regret,57,3,0.45709649997297674,0.7,0,NA,NA,0.5,0.2,0.7,335,372,3,1,2,best
897793,regret,58,1,0.31963566603371873,0.5,1,NA,NA,0.5,0.2,0.7,336,372,3,1,2,medium
897793,regret,59,1,0.3531096670194529,0.5,0,NA,NA,0.5,0.2,0.7,336,372,3,1,2,medium
897793,regret,60,3,0.31111175002297387,0.7,1,NA,NA,0.5,0.2,0.7,337,372,3,1,2,best
922169,regret,1,2,1.9469971249927769,0.7,1,NA,NA,0.5,0.7,0.2,338,372,2,1,3,best
922169,regret,2,3,1.4354254999780096,0.2,0,2,3.6424308749847114,0.5,0.7,0.2,338,372,2,1,3,worst
922169,regret,3,2,0.36654750001616776,0.7,1,NA,NA,0.5,0.7,0.2,339,372,2,1,3,best
922169,regret,4,2,0.7755321250297129,0.7,0,1,2.981296292040497,0.5,0.7,0.2,339,372,2,1,3,best
922169,regret,5,2,0.31899495801189914,0.7,0,2,0.5054951250203885,0.5,0.7,0.2,339,372,2,1,3,best
922169,regret,6,1,0.3458587499917485,0.5,1,NA,NA,0.5,0.7,0.2,340,372,2,1,3,medium
922169,regret,7,1,0.31170887500047684,0.5,0,2,0.5425030409824103,0.5,0.7,0.2,340,372,2,1,3,medium
922169,regret,8,2,0.30914504203246906,0.7,1,NA,NA,0.5,0.7,0.2,341,372,2,1,3,best
922169,regret,9,2,0.30304400000022724,0.7,1,NA,NA,0.5,0.7,0.2,342,372,2,1,3,best
922169,regret,10,3,0.27251387503929436,0.2,1,NA,NA,0.5,0.7,0.2,343,372,2,1,3,worst
922169,regret,11,2,0.3193270830088295,0.7,1,NA,NA,0.5,0.7,0.2,344,372,2,1,3,best
922169,regret,12,2,0.3357137499842793,0.7,0,1,1.7939034590381198,0.5,0.7,0.2,344,372,2,1,3,best
922169,regret,13,1,0.5049756660009734,0.5,1,NA,NA,0.5,0.7,0.2,345,372,2,1,3,medium
922169,regret,14,2,0.28368575003696606,0.7,1,NA,NA,0.5,0.7,0.2,346,372,2,1,3,best
922169,regret,15,1,0.3121401669923216,0.5,0,3,0.43278745794668794,0.5,0.7,0.2,346,372,2,1,3,medium
922169,regret,16,3,0.3365596249932423,0.2,0,3,0.3078856250504032,0.5,0.7,0.2,346,372,2,1,3,worst
922169,regret,17,2,0.3828352500568144,0.7,1,NA,NA,0.5,0.7,0.2,347,372,2,1,3,best
922169,regret,18,2,0.2784494170336984,0.7,1,NA,NA,0.5,0.7,0.2,348,372,2,1,3,best
922169,regret,19,1,0.40191866602981463,0.5,0,1,0.33563520899042487,0.5,0.7,0.2,348,372,2,1,3,medium
922169,regret,20,2,0.45157991599990055,0.7,1,NA,NA,0.5,0.7,0.2,349,372,2,1,3,best
922169,regret,21,2,0.3028947500279173,0.7,0,1,0.34503108297940344,0.5,0.7,0.2,349,372,2,1,3,best
922169,regret,22,3,0.4193316670134664,0.2,0,1,1.287470959010534,0.5,0.7,0.2,349,372,2,1,3,worst
922169,regret,23,2,0.2927871660212986,0.7,1,NA,NA,0.5,0.7,0.2,350,372,2,1,3,best
922169,regret,24,2,0.3222974999807775,0.7,1,NA,NA,0.5,0.7,0.2,351,372,2,1,3,best
922169,regret,25,2,0.37968220899347216,0.7,0,2,0.4787667919881642,0.5,0.7,0.2,351,372,2,1,3,best
922169,regret,26,1,0.279137457953766,0.5,1,NA,NA,0.5,0.7,0.2,352,372,2,1,3,medium
922169,regret,27,1,0.36856508295750245,0.5,1,NA,NA,0.5,0.7,0.2,353,372,2,1,3,medium
922169,regret,28,2,0.3116063750348985,0.7,1,NA,NA,0.5,0.7,0.2,354,372,2,1,3,best
922169,regret,29,3,0.29921029100660235,0.2,0,2,0.6401464579976164,0.5,0.7,0.2,354,372,2,1,3,worst
922169,regret,30,3,0.26178229198558256,0.2,0,2,0.3675443749525584,0.5,0.7,0.2,354,372,2,1,3,worst
922169,regret,31,3,0.25432899995939806,0.2,0,NA,NA,0.5,0.7,0.2,354,372,2,1,3,worst
922169,regret,32,2,0.261031209025532,0.7,1,NA,NA,0.5,0.7,0.2,355,372,2,1,3,best
922169,regret,33,2,0.2957493749563582,0.7,1,NA,NA,0.5,0.7,0.2,356,372,2,1,3,best
922169,regret,34,1,0.2686412910115905,0.5,1,NA,NA,0.5,0.7,0.2,357,372,2,1,3,medium
922169,regret,35,2,0.31540520902490243,0.7,1,NA,NA,0.5,0.7,0.2,358,372,2,1,3,best
922169,regret,36,3,0.4149550419533625,0.2,0,NA,NA,0.5,0.7,0.2,358,372,2,1,3,worst
922169,regret,37,2,0.6621001670137048,0.7,1,NA,NA,0.5,0.7,0.2,359,372,2,1,3,best
922169,regret,38,2,0.3144634590134956,0.7,1,NA,NA,0.5,0.7,0.2,360,372,2,1,3,best
922169,regret,39,1,0.29607983300229535,0.5,1,NA,NA,0.5,0.7,0.2,361,372,2,1,3,medium
922169,regret,40,2,0.3514062920003198,0.7,1,NA,NA,0.5,0.7,0.2,362,372,2,1,3,best
922169,regret,41,3,0.39588391699362546,0.2,0,NA,NA,0.5,0.7,0.2,362,372,2,1,3,worst
922169,regret,42,2,0.35217616701265797,0.7,0,NA,NA,0.5,0.7,0.2,362,372,2,1,3,best
922169,regret,43,2,0.2947221670183353,0.7,0,NA,NA,0.5,0.7,0.2,362,372,2,1,3,best
922169,regret,44,2,0.3834598339744843,0.7,1,NA,NA,0.5,0.7,0.2,363,372,2,1,3,best
922169,regret,45,2,0.3621517089777626,0.7,1,NA,NA,0.5,0.7,0.2,364,372,2,1,3,best
922169,regret,46,1,0.30306262499652803,0.5,0,NA,NA,0.5,0.7,0.2,364,372,2,1,3,medium
922169,regret,47,1,0.3476287079975009,0.5,1,NA,NA,0.5,0.7,0.2,365,372,2,1,3,medium
922169,regret,48,2,0.4115664580021985,0.7,0,NA,NA,0.5,0.7,0.2,365,372,2,1,3,best
922169,regret,49,2,0.2838383339694701,0.7,1,NA,NA,0.5,0.7,0.2,366,372,2,1,3,best
922169,regret,50,3,0.41296024998882785,0.2,0,NA,NA,0.5,0.7,0.2,366,372,2,1,3,worst
922169,regret,51,2,0.33463100000517443,0.7,0,NA,NA,0.5,0.7,0.2,366,372,2,1,3,best
922169,regret,52,1,0.32891375001054257,0.5,1,NA,NA,0.5,0.7,0.2,367,372,2,1,3,medium
922169,regret,53,2,0.33744329202454537,0.7,0,NA,NA,0.5,0.7,0.2,367,372,2,1,3,best
922169,regret,54,3,0.28578687499975786,0.2,0,NA,NA,0.5,0.7,0.2,367,372,2,1,3,worst
922169,regret,55,2,0.281758000026457,0.7,1,NA,NA,0.5,0.7,0.2,368,372,2,1,3,best
922169,regret,56,2,0.2758277080138214,0.7,1,NA,NA,0.5,0.7,0.2,369,372,2,1,3,best
922169,regret,57,1,0.27905783301685005,0.5,1,NA,NA,0.5,0.7,0.2,370,372,2,1,3,medium
922169,regret,58,2,0.38286745798541233,0.7,1,NA,NA,0.5,0.7,0.2,371,372,2,1,3,best
922169,regret,59,2,0.5344825829961337,0.7,0,NA,NA,0.5,0.7,0.2,371,372,2,1,3,best
922169,regret,60,1,0.5445087080006488,0.5,1,NA,NA,0.5,0.7,0.2,372,372,2,1,3,medium
